time,Accel_X,Accel_Y,Gyro_Z,Steering_Angle
0.0,0.05556719533863607,1.0,0.005311371069719912,0.0
0.001000100010001,0.08595618340712592,0.999795065202575,0.13173451702577432,2.0
0.002000200020002,-0.02946431989399569,0.9995803048055094,0.058869670050646784,2.0
0.003000300030003,0.04783915214804127,0.9993557248668388,0.1381812496927294,2.0
0.004000400040004,0.006823023234885241,0.9991213315394835,0.16777044978824157,2.0
0.005000500050005001,0.02286542523017361,0.9988771310711495,0.1668012589214578,2.0
0.006000600060006,-0.03403256186285821,0.9986231298042292,0.16817302984703875,2.0
0.0070007000700070005,0.05944564694820415,0.9983593341756999,0.1011434155719993,2.0
0.008000800080008,0.15487961202485973,0.9980857507170224,0.07263731069093864,2.0
0.009000900090009001,-0.09511792072813212,0.9978023860540391,0.09080517036444806,2.0
0.010001000100010001,0.19668448137799188,0.9975092469068696,0.0749406352130964,2.0
0.011001100110011002,0.07634622017980726,0.9972063400898075,0.09550424877907177,2.0
0.012001200120012,0.34746474029210966,0.9968936725112139,0.09717600433145585,2.0
0.013001300130013,0.055313489526992554,0.9965712511734126,0.15585558316257603,2.0
0.014001400140014001,0.10403887384816475,0.9962390831725824,0.2688704060662514,2.0
0.015001500150015001,0.13156751476904832,0.9958971756986493,0.1028215332639143,2.0
0.016001600160016,0.34894931405996565,0.995545536035178,0.13169540278035327,2.0
0.017001700170017002,0.2411581291795922,0.9951841715592621,0.23764235873781683,2.0
0.018001800180018002,0.2250532174730879,0.9948130897414135,0.191752802038753,2.0
0.019001900190019003,0.027946732192509816,0.9944322981454513,0.18469918216783124,2.0
0.020002000200020003,0.3455298962558803,0.9940418044283893,0.11590008563698383,2.0
0.021002100210021003,0.1252026446688036,0.993641616340323,0.08232635794084066,2.0
0.022002200220022004,0.15325810016350672,0.9932317417243152,0.04755778536301933,2.0
0.023002300230023004,0.29774919875506534,0.9928121885162815,0.16996816625745143,2.0
0.024002400240024,0.4142587188262692,0.9923829647448745,0.0574529277385794,2.0
0.025002500250025,0.33544587952104654,0.991944078531367,0.09922610042384215,2.0
0.026002600260026,0.2644701503643402,0.9914955380895344,-0.01789058970595672,2.0
0.027002700270027002,0.22679481785804934,0.9910373517255365,-0.15560951098898831,2.0
0.028002800280028002,0.20620551229905168,0.9905695278377984,-0.091464658125511,2.0
0.029002900290029002,0.22726753888602474,0.9900920749168896,-0.09355007484517619,2.0
0.030003000300030003,0.2970866435892754,0.9896050015454039,-0.02964212259261404,2.0
0.031003100310031003,0.4046539757011077,0.9891083163978371,-0.18123876681164586,2.0
0.032003200320032,0.1911280377093747,0.9886020282404644,-0.2212450264362099,2.0
0.033003300330033,0.08189944823527565,0.9880861459312169,-0.16150418611463235,2.0
0.034003400340034004,0.4283635284777554,0.987560678419557,-0.22601581710009588,2.0
0.035003500350035,0.2413152911049936,0.9870256347463527,-0.3395361172306533,2.0
0.036003600360036005,0.36429667730420495,0.9864810240437527,-0.35225542593156284,2.0
0.037003700370037,0.2142985602410593,0.9859268555350581,-0.2552266145255769,2.0
0.038003800380038005,0.2532727421968639,0.9853631385345949,-0.44209168339182847,2.0
0.039003900390039,0.22964757898166624,0.984789882447586,-0.5415315629539894,2.0
0.040004000400040006,0.4193219399765269,0.9842070967700207,-0.42883928627041695,2.0
0.041004100410041,0.3835889350928423,0.9836147910885247,-0.36038766889692897,2.0
0.04200420042004201,0.2941539306289401,0.9830129750802289,-0.4444269426117946,2.0
0.043004300430043,0.383006132321107,0.9824016585126373,-0.5100042938841177,2.0
0.04400440044004401,0.5447371763336593,0.9817808512434937,-0.727348262739635,2.0
0.045004500450045004,0.35828904106040016,0.9811505632206486,-0.8000447510197713,2.0
0.04600460046004601,0.5497366384288296,0.9805108044819238,-0.8226611132663518,2.0
0.047004700470047005,0.3517411697037674,0.979861585154978,-0.9910139878866151,2.0
0.048004800480048,0.3382972574978047,0.979202915457169,-0.8667020258200154,2.0
0.049004900490049005,0.41291140148956906,0.9785348056954181,-0.8544962487668069,2.0
0.05000500050005,0.5611928753301315,0.9778572662660711,-0.8843903368298345,2.0
0.051005100510051006,0.4818862149904865,0.9771703076547599,-0.8243644262669447,2.0
0.052005200520052,0.7119587247854151,0.9764739404362629,-0.8933278458686765,2.0
0.05300530053005301,0.5108410400460316,0.975768175274365,-0.868059920989169,2.0
0.054005400540054004,0.39794016761958395,0.9750530229217148,-0.7034255420385314,2.0
0.05500550055005501,0.5412622978343784,0.9743284942196844,-0.6945101210305912,2.0
0.056005600560056004,0.5238705676898547,0.9735946000982254,-0.7246836573821951,2.0
0.05700570057005701,0.45495378734940484,0.9728513515757251,-0.7601255523381013,2.0
0.058005800580058005,0.5852446505789085,0.9720987597588627,-0.7841999578894011,2.0
0.05900590059005901,0.6969192566978302,0.9713368358424632,-0.9259718150069202,2.0
0.060006000600060005,0.3352140655152617,0.9705655911093513,-0.7695836570797819,2.0
0.06100610061006101,0.6921766201060536,0.9697850369302048,-0.8697051933099851,2.0
0.062006200620062006,0.501045876938966,0.9689951847634063,-0.8580082635409374,2.0
0.063006300630063,0.6220828701800944,0.968196046154895,-0.876488381734797,2.0
0.064006400640064,0.528523520277848,0.9673876327380172,-0.9289814617199946,2.0
0.06500650065006501,0.7272794864121797,0.9665699562333754,-0.7443435590577122,2.0
0.066006600660066,0.5347986654903913,0.9657430284486784,-0.7441251061410479,2.0
0.067006700670067,0.7051544962276626,0.9649068612785887,-0.8448706442225815,2.0
0.06800680068006801,0.661261323242878,0.9640614667045695,-1.0026152577957388,2.0
0.06900690069006901,0.510543149921723,0.9632068567947323,-0.9465306711831118,2.0
0.07000700070007,0.6682916361376349,0.962343043703682,-1.0987353112686142,2.0
0.071007100710071,0.6294732538929109,0.9614700396723618,-1.0995732140694656,2.0
0.07200720072007201,0.8103208911746457,0.9605878570278974,-1.4139290902953914,2.0
0.07300730073007301,0.5923076677003997,0.9596965081834409,-1.3956755583603941,2.0
0.074007400740074,0.580821982964603,0.9587960056380126,-1.4890774941891405,2.0
0.075007500750075,0.6813268657825207,0.9578863619763434,-1.2457729496828482,2.0
0.07600760076007601,0.57185431692534,0.9569675898687153,-1.1497811054774087,2.0
0.07700770077007701,0.6178030132163902,0.9560397020708025,-1.2909095674995872,2.0
0.078007800780078,0.5326383499883118,0.9551027114235094,-1.2007952452856951,2.0
0.07900790079007901,0.7125707099531918,0.9541566308528108,-1.181982347697039,2.0
0.08000800080008001,0.6947310148041497,0.9532014733695889,-1.282844659733872,2.0
0.081008100810081,0.7581303427748299,0.9522372520694706,-1.352139088515347,2.0
0.082008200820082,0.5698791766818238,0.9512639801326637,-1.4062452383010262,2.0
0.08300830083008301,0.6119275303893486,0.9502816708237927,-1.4231087781269407,2.0
0.08400840084008401,0.7114208326963343,0.9492903374917335,-1.338965850594711,2.0
0.085008500850085,0.6805873494730279,0.9482899935694475,-1.3528344331835933,2.0
0.086008600860086,0.7222986001047644,0.9472806525738146,-1.4537906138890224,2.0
0.08700870087008701,0.7482488475066283,0.9462623281054658,-1.4718290441010287,2.0
0.08800880088008801,0.6642059237000957,0.9452350338486154,-1.4966745667658532,2.0
0.089008900890089,0.7166340289184157,0.9441987835708909,-1.3588684245138363,2.0
0.09000900090009001,0.7985021583948794,0.9431535911231645,-1.4073972276609454,2.0
0.09100910091009101,0.8195725818765922,0.9420994704393815,-1.5238409125449652,2.0
0.09200920092009202,0.743362174784238,0.9410364355363894,-1.479757853182356,2.0
0.093009300930093,0.73071250286628,0.9399645005137659,-1.5334093613562536,2.0
0.09400940094009401,0.7873721756536821,0.938883679553646,-1.6222080663845926,2.0
0.09500950095009501,0.8736378948945333,0.9377939869205488,-1.5209974271413054,2.0
0.096009600960096,0.7925928002720535,0.9366954369612024,-1.3854603451673182,2.0
0.09700970097009701,0.7213348649400693,0.9355880441043695,-1.3608150857549113,2.0
0.09800980098009801,0.8950150810774166,0.9344718228606711,-1.2996226895894527,2.0
0.09900990099009901,0.9151853289462692,0.9333467878224111,-1.2935195983450372,2.0
0.1000100010001,0.6990255818721746,0.9322129536633974,-1.153860295883434,2.0
0.10101010101010101,0.894789055999121,0.9310703351387648,-1.0118709375757582,2.0
0.10201020102010201,0.8053165796018453,0.9299189470847967,-1.1246026956917174,2.0
0.10301030103010302,0.6483439111244425,0.9287588044187445,-0.9438824271195685,2.0
0.104010401040104,0.9442364603820899,0.9275899221386482,-0.9400521132365738,2.0
0.10501050105010501,0.8335696383797824,0.9264123153231553,-1.0196467104801528,2.0
0.10601060106010601,0.704636778288689,0.9252259991313386,-0.9643230636556315,2.0
0.10701070107010702,0.8366502794568328,0.9240309888025152,-0.9247588937072128,2.0
0.10801080108010801,0.7711745708356059,0.9228272996560616,-0.907828800762664,2.0
0.10901090109010901,0.8515153786991507,0.921614947091231,-0.8425835274410787,2.0
0.11001100110011001,0.7606361761805324,0.9203939465869688,-0.9071532979386827,2.0
0.11101110111011102,0.8676945976765033,0.9191643137017266,-0.8459760653809916,2.0
0.11201120112011201,0.8156142021226385,0.9179260640732769,-0.7285278698958153,2.0
0.11301130113011301,0.8673317766707054,0.916679213418526,-0.6770938938824105,2.0
0.11401140114011402,0.9923059797457618,0.9154237775333268,-0.6014004282632817,2.0
0.115011501150115,0.8125661621155392,0.9141597722922911,-0.7144178407526838,2.0
0.11601160116011601,0.8853011102517522,0.9128872136485996,-0.564447902192018,2.0
0.11701170117011701,0.9569888821195212,0.9116061176338134,-0.550671425262565,2.0
0.11801180118011802,1.1096422438550613,0.9103165003576841,-0.6033272207174527,2.0
0.11901190119011901,0.970134386508014,0.9090183780079614,-0.6432761896195238,2.0
0.12001200120012001,1.0878407632371332,0.9077117668502028,-0.6383947398487941,2.0
0.12101210121012101,0.8620642012881331,0.906396683227581,-0.8501861138156803,2.0
0.12201220122012202,0.8172993189644842,0.9050731435606909,-0.8508245086348323,2.0
0.12301230123012301,0.8169478671887518,0.9037411643473552,-0.7144716638696287,2.0
0.12401240124012401,1.0069134613792134,0.9024007621624314,-0.7728534127324984,2.0
0.125012501250125,0.8509840852751729,0.9010519536576151,-0.7476206410460895,2.0
0.126012601260126,0.901342306528055,0.8996947555612461,-0.7581122485550827,2.0
0.127012701270127,1.048740822397958,0.8983291846781102,-0.5266117427406778,2.0
0.128012801280128,0.9060890798997356,0.8969552578892432,-0.48766425466925867,2.0
0.12901290129012902,1.0764729220395202,0.8955729921517329,-0.6181942024275313,2.0
0.13001300130013002,0.6690105961673707,0.8941824044985206,-0.6209464779126415,2.0
0.13101310131013102,0.9559251926378571,0.8927835120382015,-0.4828565545875194,2.0
0.132013201320132,0.8328164366839466,0.8913763319548258,-0.4985773524420137,2.0
0.133013301330133,0.975449715947462,0.8899608815076976,-0.3536334406154417,2.0
0.134013401340134,0.9331353449910267,0.8885371780311737,-0.22472017468984876,2.0
0.135013501350135,1.042742457298306,0.8871052389344627,-0.356126528705359,2.0
0.13601360136013602,0.9136254524333478,0.885665081701421,-0.38211256445646813,2.0
0.13701370137013702,0.9891607041246091,0.8842167238903512,-0.41942773052831406,2.0
0.13801380138013802,1.0146282256424364,0.8827601831337977,-0.47684925550203006,2.0
0.13901390139013903,0.8310859500046672,0.8812954771383417,-0.4027209789295495,2.0
0.14001400140014,1.0718831492028051,0.8798226236843975,-0.48968836893150125,2.0
0.141014101410141,1.1040081568043096,0.8783416406260051,-0.5274927418060269,2.0
0.142014201420142,0.8857463534982896,0.8768525458906254,-0.443240352354878,2.0
0.14301430143014301,0.9146797802447354,0.8753553574789323,-0.539971024910909,2.0
0.14401440144014402,0.8255751815586936,0.8738500934646051,-0.5339924300780887,2.0
0.14501450145014502,1.004362663766795,0.8723367719941202,-0.5829811155510795,2.0
0.14601460146014603,0.9511069944948018,0.8708154112865424,-0.656257053036867,2.0
0.147014701470147,1.179387622588898,0.8692860296333156,-0.6016941588385638,2.0
0.148014801480148,0.9790372274797458,0.8677486453980513,-0.5850120602047416,2.0
0.149014901490149,0.8905901788654677,0.8662032770163195,-0.7853606407361884,2.0
0.15001500150015,0.7938063722904739,0.864649942995436,-0.8410747137605155,2.0
0.15101510151015102,1.017525455834641,0.8630886619142505,-0.8818950191832292,2.0
0.15201520152015202,0.9693894511043428,0.8615194524229344,-0.9594017317389428,2.0
0.15301530153015303,0.8952064406944692,0.8599423332427669,-0.8022327250322416,2.0
0.15401540154015403,0.9974536919230281,0.8583573231659216,-0.758252356250664,2.0
0.155015501550155,0.8213402790644743,0.8567644410552512,-0.5628703706559214,2.0
0.156015601560156,1.0415960494777134,0.8551637058440726,-0.6402175752289483,2.0
0.157015701570157,0.9263632473705341,0.8535551365359517,-0.7417682228068818,2.0
0.15801580158015802,1.1106178247522434,0.8519387522044862,-0.7082104131047483,2.0
0.15901590159015902,1.0574529477124925,0.8503145719930886,-0.8277641955317538,2.0
0.16001600160016002,0.9485407695717982,0.848682615114769,-0.6789183655991246,2.0
0.16101610161016103,0.9774918878353585,0.847042900851917,-0.6933395613459222,2.0
0.162016201620162,0.9281134475046002,0.8453954485560824,-0.7658225604201543,2.0
0.163016301630163,1.02627868576829,0.8437402776477554,-0.6639598255142071,2.0
0.164016401640164,0.9786511217676134,0.842077407616148,-0.7357037411201169,2.0
0.16501650165016502,0.8647549329665223,0.8404068580189716,-0.694992141566256,2.0
0.16601660166016602,0.9636284464498774,0.8387286484822177,-0.561264754788521,2.0
0.16701670167016702,1.0629203647543788,0.8370427986999341,-0.595509971793842,2.0
0.16801680168016803,0.9187565827800052,0.8353493284340041,-0.4453248211516833,2.0
0.16901690169016903,0.8246043085465737,0.8336482575139229,-0.4142124469206727,2.0
0.17001700170017,0.8806339763689365,0.8319396058365739,-0.4733360520022776,2.0
0.171017101710171,0.8981606443659675,0.830223393366005,-0.4225842479905497,2.0
0.172017201720172,1.0416547490923298,0.8284996401332035,-0.30277917831539575,2.0
0.17301730173017302,0.9205133721129621,0.8267683662358711,-0.1239427690661366,2.0
0.17401740174017402,0.8851009319868913,0.8250295918381982,-0.33086801385604525,2.0
0.17501750175017503,0.8000928959760654,0.8232833371706368,-0.3338572656197408,2.0
0.17601760176017603,0.8462685563642456,0.8215296225296743,-0.3010803072394761,2.0
0.177017701770177,0.9782870362900514,0.8197684682776055,-0.2623416271869784,2.0
0.178017801780178,0.9285570221625152,0.8179998948423048,-0.23280630290984813,2.0
0.179017901790179,0.7907712157943261,0.8162239227169973,-0.06356685818319628,2.0
0.18001800180018002,1.1709203896437166,0.8144405724600295,0.012811737995871887,2.0
0.18101810181018102,0.983915850777251,0.8126498646946401,-0.17335978970750363,2.0
0.18201820182018202,1.1777484864296492,0.8108518201087285,-0.30194305391618964,2.0
0.18301830183018303,1.0293579712353238,0.8090464594546257,-0.36944125231603725,2.0
0.18401840184018403,1.089462350027454,0.8072338035488611,-0.4713637488885467,2.0
0.185018501850185,0.9343393133626707,0.8054138732719317,-0.438461570714467,2.0
0.186018601860186,1.0340192910262798,0.8035866895680691,-0.5068389865075894,2.0
0.18701870187018702,0.9070809217095226,0.8017522734450064,-0.4040753965368713,2.0
0.18801880188018802,0.9156627668972742,0.7999106459737453,-0.4066128292762463,2.0
0.18901890189018902,0.9744363851996026,0.7980618282883211,-0.3071789135426777,2.0
0.19001900190019003,1.1268937846291351,0.7962058415855683,-0.4183843994862523,2.0
0.19101910191019103,1.186351592974003,0.794342707124886,-0.381450169785843,2.0
0.192019201920192,1.1215290941564775,0.7924724462280015,-0.515003239272139,2.0
0.193019301930193,1.0188162995105865,0.7905950802787344,-0.5832117570105669,2.0
0.19401940194019401,0.8879385632068094,0.78871063072276,-0.5359670687943042,2.0
0.19501950195019502,0.9378632222286566,0.786819119067372,-0.6750982677432009,2.0
0.19601960196019602,0.9972530634590354,0.7849205668812438,-0.6496809475432954,2.0
0.19701970197019703,0.9367350820500365,0.783014995794192,-0.6083508067387808,2.0
0.19801980198019803,0.9253415346036755,0.7811024274969359,-0.44009232660490216,2.0
0.19901990199019903,0.9590004792346825,0.7791828837408595,-0.5553185464311128,2.0
0.2000200020002,0.9594916484644882,0.7772563863377705,-0.5178755391064092,2.0
0.201020102010201,0.943229739657772,0.7753229571596609,-0.7636206477434035,2.0
0.20202020202020202,0.9165104386023378,0.773382618138466,-0.8814194519164691,2.0
0.20302030203020302,0.8998035116442585,0.7714353912658226,-0.8932464370546438,2.0
0.20402040204020402,0.9829901026398855,0.7694812985928279,-0.7325221638756562,2.0
0.20502050205020503,1.030021899350791,0.7675203622297965,-0.6824841524029108,2.0
0.20602060206020603,0.9719491452934955,0.7655526043460182,-0.5291323692930247,2.0
0.20702070207020704,1.0252070031894602,0.7635780471695146,-0.5221458809470242,2.0
0.208020802080208,0.883397782595848,0.7615967129867951,-0.47594701210806334,2.0
0.20902090209020902,0.8821105772442344,0.7596086241426123,-0.4410256147174404,2.0
0.21002100210021002,0.812086572743423,0.7576138030397188,-0.34238035976189335,2.0
0.21102110211021102,0.8985742143466086,0.75561227213862,-0.373938620989416,2.0
0.21202120212021203,0.9309704755429955,0.75360405395733,-0.46031519176156277,2.0
0.21302130213021303,0.898606738818072,0.7515891710711244,-0.46874554042358324,2.0
0.21402140214021403,1.0139954210636786,0.7495676461122943,-0.559927709284885,2.0
0.215021502150215,1.1046385257409765,0.7475395017698994,-0.6514482252798471,2.0
0.21602160216021601,0.9201965275433351,0.7455047607895194,-0.8171461827848996,2.0
0.21702170217021702,0.7371164463078256,0.7434634459730072,-0.8037104762918515,2.0
0.21802180218021802,0.9079057797229778,0.7414155801782399,-0.6909620663938616,2.0
0.21902190219021903,0.7283366471803472,0.7393611863188696,-0.666428816801473,2.0
0.22002200220022003,1.1262264491099558,0.7373002873640748,-0.5021443952338451,2.0
0.22102210221022103,0.8689437411765206,0.7352329063383097,-0.3373213813875471,2.0
0.22202220222022204,0.7223010719293108,0.7331590663210548,-0.3773008995897821,2.0
0.223022302230223,0.9232960287032997,0.7310787904465652,-0.3244089551918588,2.0
0.22402240224022402,0.8470335575092984,0.7289921019036202,-0.4025811358000758,2.0
0.22502250225022502,0.967613571717806,0.7268990239352714,-0.5069863738600102,2.0
0.22602260226022602,0.8819768037497778,0.7247995798385911,-0.402127414028538,2.0
0.22702270227022703,0.7769556546048629,0.7226937929644189,-0.5195386570036884,2.0
0.22802280228022803,0.8253065177966069,0.7205816867171101,-0.5142075028182765,2.0
0.22902290229022904,0.8665973020206352,0.7184632845542805,-0.5553380948006058,2.0
0.23002300230023,0.753764399222023,0.7163386099865552,-0.44030931643551985,2.0
0.23102310231023102,0.8732024316280109,0.7142076865773116,-0.5274537835577255,2.0
0.23202320232023202,0.8855991987611735,0.7120705379424274,-0.45740951791969203,2.0
0.23302330233023302,0.8275771878605168,0.7099271877500231,-0.46568644678429894,2.0
0.23402340234023403,0.8466023833521167,0.7077776597202092,-0.4066502505197166,2.0
0.23502350235023503,0.6280631611726283,0.7056219776248279,-0.28646495485879697,2.0
0.23602360236023603,1.01176811804469,0.7034601652871985,-0.21320185562887628,2.0
0.23702370237023704,0.6002568859022183,0.7012922465818597,-0.18619587468948115,2.0
0.23802380238023801,0.7600844890305696,0.6991182454343137,-0.22162136989616166,2.0
0.23902390239023902,0.7458800207037798,0.6969381858207673,-0.29510259139748685,2.0
0.24002400240024002,0.789476905024335,0.6947520917678749,-0.4372626838137009,2.0
0.24102410241024103,0.802210886313172,0.6925599873524801,-0.553277172266399,2.0
0.24202420242024203,0.8395478371510716,0.6903618967013573,-0.651437904877175,2.0
0.24302430243024303,0.7844323289853881,0.6881578439909518,-0.7689739926000092,2.0
0.24402440244024404,0.729963101307478,0.6859478534471214,-0.7529889339035201,2.0
0.245024502450245,0.5811984607738725,0.6837319493448756,-0.6011219629990707,2.0
0.24602460246024602,0.8661456419245597,0.681510156008116,-0.28178723097431435,2.0
0.24702470247024702,0.7290547202730241,0.6792824978093759,-0.44323265268866596,2.0
0.24802480248024802,0.8025725055493778,0.6770489991695582,-0.426701107074176,2.0
0.24902490249024903,0.7691314935526442,0.6748096845576759,-0.43595186006101355,2.0
0.25002500250025,0.7001834888030859,0.6725645784905883,-0.4254591649410254,2.0
0.251025102510251,0.7467914082714342,0.6703137055327404,-0.36172466975497136,2.0
0.252025202520252,0.6836782458963909,0.6680570902958998,-0.20985740009200182,2.0
0.253025302530253,0.7660839797141327,0.6657947574388943,-0.1941854400428443,2.0
0.254025402540254,0.8076150202932589,0.6635267316673482,-0.2093491673606835,2.0
0.255025502550255,0.5625777781428147,0.6612530377334194,-0.3196111381531648,2.0
0.256025602560256,0.5046142986315307,0.6589737004355344,-0.39852743504785376,2.0
0.25702570257025703,0.6653232668190319,0.6566887446181255,-0.45274275995447444,2.0
0.25802580258025803,0.6419074172662803,0.6543981951713651,-0.4548467060673582,2.0
0.25902590259025904,0.622533441067418,0.6521020770309014,-0.3903987001245289,2.0
0.26002600260026004,0.687424654301746,0.6498004151775926,-0.3042689440207735,2.0
0.26102610261026105,0.8292481115800936,0.6474932346372415,-0.40459108681898787,2.0
0.26202620262026205,0.5328093193406422,0.6451805604803297,-0.33491023277887777,2.0
0.26302630263026305,0.5982766219709047,0.6428624178217511,-0.4195236103846659,2.0
0.264026402640264,0.5902806272684885,0.6405388318205455,-0.27729918698097206,2.0
0.265026502650265,0.6544227855676659,0.6382098276796307,-0.27567610122101416,2.0
0.266026602660266,0.7880996285269116,0.6358754306455366,0.04752189587125009,2.0
0.267026702670267,0.6310555690617922,0.6335356660081367,0.053621568715499994,2.0
0.268026802680268,0.5485877324486391,0.6311905591003804,-0.0827692630406019,2.0
0.269026902690269,0.4908640556135835,0.6288401352980246,-0.1493178715517291,2.0
0.27002700270027,0.6884494860455848,0.626484420019365,-0.02443147365859373,2.0
0.27102710271027103,0.7096735449168482,0.6241234387249679,0.08008496722911938,2.0
0.27202720272027203,0.5646740404036009,0.6217572169173999,0.2677782573246429,2.0
0.27302730273027304,0.6366608429213092,0.6193857801409595,0.2395977954758391,2.0
0.27402740274027404,0.39644455275546864,0.6170091539814061,0.2602670387167698,2.0
0.27502750275027504,0.379802371921578,0.6146273640656912,0.20589144749569666,2.0
0.27602760276027605,0.43210161769753636,0.6122404360616869,0.07393518776901982,2.0
0.27702770277027705,0.4934505559019387,0.6098483956779155,-0.016823726438477273,2.0
0.27802780278027805,0.5032219273749754,0.6074512686632787,0.14051274424301505,2.0
0.279027902790279,0.6285749064602748,0.6050490808067863,0.09202886585479803,2.0
0.28002800280028,0.47881190758194336,0.602641857937284,0.13920592411504287,2.0
0.281028102810281,0.5318803727071425,0.6002296259231822,0.16890576223185985,2.0
0.282028202820282,0.42147723353069266,0.5978124106721834,0.06862183570342668,2.0
0.283028302830283,0.49665411494608086,0.5953902381310102,0.17872102617024754,2.0
0.284028402840284,0.41744837355174214,0.5929631342851323,0.12825487918794584,2.0
0.285028502850285,0.6385504226573296,0.5905311251584929,0.25323615765768653,2.0
0.28602860286028603,0.38163571210033076,0.5880942368132369,0.19421524422306258,2.0
0.28702870287028703,0.5110568826014261,0.5856524953494356,-0.0952653805520367,2.0
0.28802880288028804,0.5083222028091614,0.5832059269048147,-0.02640558501133833,2.0
0.28902890289028904,0.28234925846252157,0.5807545576544783,0.050007843753624937,2.0
0.29002900290029004,0.42677938786832187,0.5782984138106361,0.0005926007038744574,2.0
0.29102910291029105,0.4807184370462185,0.5758375216223283,-0.1250015488705095,2.0
0.29202920292029205,0.5241336217125218,0.5733719073751504,-0.22666095349347615,2.0
0.29302930293029306,0.4070202258503203,0.5709015973909788,-0.2888082970144642,2.0
0.294029402940294,0.26742141006247167,0.568426618027695,-0.2598131245649369,2.0
0.295029502950295,0.3705610970410103,0.5659469956789093,-0.19499978718022365,2.0
0.296029602960296,0.29272028969661334,0.5634627567736868,-0.38713379075910437,2.0
0.297029702970297,0.37345744827488403,0.5609739277762699,-0.3781640007348827,2.0
0.298029802980298,0.22710145531114084,0.5584805351858019,-0.25088177544768814,2.0
0.299029902990299,0.22729612083172657,0.5559826055360512,-0.29223233591510883,2.0
0.3000300030003,0.39240099496008257,0.5534801653951341,-0.5163930324834606,2.0
0.30103010301030103,0.2977943843748145,0.5509732413652382,-0.6600942200711356,2.0
0.30203020302030203,0.2909814389400485,0.5484618600823443,-0.7421460809670859,2.0
0.30303030303030304,0.19153071688881498,0.5459460482159496,-0.6692591489026138,2.0
0.30403040304030404,0.18015999242366126,0.5434258324687903,-0.6765150102419669,2.0
0.30503050305030505,0.3513582298174334,0.5409012395765624,-0.9384144745465527,2.0
0.30603060306030605,0.14955276216979718,0.5383722963076455,-1.1070503310370832,2.0
0.30703070307030705,0.21814720387621397,0.5358390294628222,-1.066650130925182,2.0
0.30803080308030806,0.19161880378948654,0.5333014658750019,-1.1035338476561127,2.0
0.309030903090309,0.24734370410754808,0.5307596324089403,-1.1705020882388817,2.0
0.31003100310031,0.1507255368173998,0.5282135559609606,-1.3483693926078981,2.0
0.311031103110311,0.1788317813048043,0.5256632634586758,-1.2690014565132826,2.0
0.312031203120312,0.31931494530323506,0.5231087818607075,-1.5387283134271095,2.0
0.313031303130313,0.14503743600656277,0.5205501381564078,-1.5400610267822916,2.0
0.314031403140314,0.30494897381649133,0.5179873593655785,-1.561139301672747,2.0
0.31503150315031503,0.026252551473297137,0.5154204725381917,-1.558640900266493,2.0
0.31603160316031603,0.24636972668089316,0.5128495047541097,-1.4627637887420506,2.0
0.31703170317031704,0.10538129419719569,0.5102744831228042,-1.4994606522763003,2.0
0.31803180318031804,0.06554506407144928,0.5076954347830768,-1.466245071260749,2.0
0.31903190319031904,0.09279408492149617,0.5051123869027772,-1.5044660829639005,2.0
0.32003200320032005,0.2594979608546125,0.502525366678523,-1.3659635181746719,2.0
0.32103210321032105,-0.034272600444773246,0.4999344013354189,-1.2989850289970042,2.0
0.32203220322032206,0.1202609284691159,0.4973395181267744,-1.436231658133181,2.0
0.32303230323032306,0.19103521861340245,0.49474074433382437,-1.3398391020265508,2.0
0.324032403240324,-0.015402337260066817,0.4921381072654455,-1.2848696345535338,2.0
0.325032503250325,0.18866188170635118,0.4895316342578754,-1.161135041498132,2.0
0.326032603260326,0.08883790422337673,0.4869213526744318,-0.8986433885374899,2.0
0.327032703270327,-0.0894001454350706,0.48430728990522887,-1.0419756746842226,2.0
0.328032803280328,0.02061700387378117,0.4816894733668962,-0.8641772103056398,2.0
0.329032903290329,0.007213612637530176,0.47906793050229585,-1.0685847278573608,2.0
0.33003300330033003,0.03175111722678234,0.47644268878024076,-0.9395658682412101,2.0
0.33103310331033103,-0.03728375566113573,0.4738137756952111,-1.0218078915105977,2.0
0.33203320332033204,-0.13995860941108754,0.47118121876707236,-0.9348942674069657,2.0
0.33303330333033304,-0.18122416137392386,0.4685450455407918,-1.0199679259277399,2.0
0.33403340334033405,-0.07284241115522319,0.4659052835861567,-1.0282037680125267,2.0
0.33503350335033505,-0.012834642761086512,0.4632619604974895,-1.1061277300211707,2.0
0.33603360336033605,0.13189871113763893,0.46061510389336585,-1.1333442764228774,2.0
0.33703370337033706,-0.0924296393085824,0.4579647414163305,-1.3082699062211347,2.0
0.33803380338033806,-0.11237563679512654,0.4553109007326145,-1.0378978815521724,2.0
0.339033903390339,-0.06449902077014971,0.452653609531851,-0.9155620719118835,2.0
0.34003400340034,-0.04158443475248302,0.449992895526791,-1.000018340299171,2.0
0.341034103410341,-0.25509223536875564,0.44732878645302127,-0.9737068354346938,2.0
0.342034203420342,-0.25541475591131335,0.4446613100686782,-0.9883275040057152,2.0
0.343034303430343,-0.08329613450449047,0.4419904941541653,-1.1594914521327275,2.0
0.344034403440344,0.05259910336447511,0.4393163665118682,-1.2435021996597646,2.0
0.34503450345034503,-0.12236235170917194,0.43663895496587035,-1.1437560698065,2.0
0.34603460346034604,-0.05692203533149314,0.4339582873616696,-1.0571583469652546,2.0
0.34703470347034704,-0.008272775199061194,0.43127439156589215,-1.031176946955261,2.0
0.34803480348034804,-0.18963549610044025,0.42858729546600915,-0.8196282489128293,2.0
0.34903490349034905,-0.15795886874888468,0.4258970269700512,-0.9321761035497907,2.0
0.35003500350035005,-0.3111940539839432,0.4232036140063246,-0.844240815551149,2.0
0.35103510351035105,0.03770000646990809,0.42050708452312546,-0.907817285298524,2.0
0.35203520352035206,-0.12725372642201055,0.417807466488455,-0.9604841826005606,2.0
0.35303530353035306,-0.05353896149980683,0.41510478788973476,-0.9863902763532121,2.0
0.354035403540354,-0.3761757436595049,0.41239907673352205,-0.9231139516945919,2.0
0.355035503550355,-0.04052284463688258,0.40969036104522283,-0.8938546024596875,2.0
0.356035603560356,-0.1427521512586788,0.40697866886880846,-0.7114388690800649,2.0
0.357035703570357,-0.24122722032212343,0.4042640282665299,-0.723246448289968,2.0
0.358035803580358,-0.2998542908249566,0.4015464673186316,-0.774284150935755,2.0
0.35903590359035903,-0.30918077638440905,0.39882601412306645,-0.6748973044270219,2.0
0.36003600360036003,-0.19374183222212416,0.3961026967952104,-0.9049684686610114,2.0
0.36103610361036104,-0.22994103502376162,0.39337654346757706,-0.9467128482801312,2.0
0.36203620362036204,-0.13120081782868134,0.39064758228953134,-0.8826937904603414,2.0
0.36303630363036304,-0.5225716514173754,0.3879158414270043,-0.9386491797273037,2.0
0.36403640364036405,-0.42314702231729645,0.3851813490622074,-0.8540119250605355,2.0
0.36503650365036505,-0.28197405463151964,0.38244413339334676,-0.8523901811276977,2.0
0.36603660366036606,-0.2371582015933088,0.37970422263433684,-0.9591674401785882,2.0
0.36703670367036706,-0.3318542766482148,0.3769616450145151,-0.9821170673998347,2.0
0.36803680368036806,-0.2536934982409801,0.3742164287783558,-0.9495998976239926,2.0
0.369036903690369,-0.2872984068408988,0.3714686021851848,-0.9717884418004907,2.0
0.37003700370037,-0.3543684017201008,0.36871819350889173,-0.8357198382817391,2.0
0.371037103710371,-0.3238287384669543,0.3659652310376462,-0.9482553086921094,2.0
0.372037203720372,-0.3483799573181354,0.3632097430736102,-0.9938824847732157,2.0
0.373037303730373,-0.34222775009472084,0.36045175793265316,-0.9839310317699295,2.0
0.37403740374037403,-0.32295178642937944,0.3576913039440648,-0.84661300832794,2.0
0.37503750375037503,-0.2352440382700672,0.35492840945026977,-0.8559602945745901,2.0
0.37603760376037604,-0.591817363510833,0.35216310280654106,-0.7980688627392567,2.0
0.37703770377037704,-0.26725414634007155,0.3493954123807147,-0.8800449574050593,2.0
0.37803780378037805,-0.25414860270827544,0.3466253665529025,-0.7577110246976181,2.0
0.37903790379037905,-0.2778516458349901,0.34385299371520645,-0.7667892182216838,2.0
0.38003800380038005,-0.5219967034080063,0.3410783222714327,-0.5276012967645244,2.0
0.38103810381038106,-0.4743420780685188,0.33830138063680554,-0.6504532795916762,2.0
0.38203820382038206,-0.5730471012912223,0.3355221972376806,-0.7187100346355533,2.0
0.38303830383038306,-0.24612166218532783,0.33274080051125915,-0.7667635962529085,2.0
0.384038403840384,-0.4867541706520374,0.32995721890530205,-1.0159154123176766,2.0
0.385038503850385,-0.5136376277604721,0.3271714808778433,-1.0879767524164083,2.0
0.386038603860386,-0.4381351974517751,0.3243836148969042,-1.1628895629037668,2.0
0.387038703870387,-0.6010768904167414,0.32159364944020685,-1.2081860956690644,2.0
0.38803880388038803,-0.4358162079974868,0.318801612994889,-1.237940064473592,2.0
0.38903890389038903,-0.8107323956724881,0.3160075340572169,-1.2854279051406907,2.0
0.39003900390039004,-0.5075277198152682,0.31321144113229965,-1.201441839833139,2.0
0.39103910391039104,-0.4679915385380294,0.3104133627338032,-1.1742368690914922,2.0
0.39203920392039204,-0.35182591751652065,0.3076133273836649,-1.0870713135664098,2.0
0.39303930393039305,-0.4945725027388177,0.30481136361180666,-1.0331156899102891,2.0
0.39403940394039405,-0.3407205696928495,0.3020074999558495,-0.9569885223327413,2.0
0.39503950395039505,-0.6297248976000285,0.29920176496082734,-1.0538403430418888,2.0
0.39603960396039606,-0.5338830092735213,0.2963941871789023,-1.0618165590654849,2.0
0.39703970397039706,-0.5476585652839839,0.29358479516907715,-1.1000574230132931,2.0
0.39803980398039807,-0.5893894843185186,0.290773617496911,-1.0564725900007959,2.0
0.39903990399039907,-0.6074517089791756,0.2879606827342327,-1.0087161743053243,2.0
0.4000400040004,-0.650487510764238,0.28514601945885576,-1.0553698542088912,2.0
0.401040104010401,-0.593540861533327,0.2823296562542928,-1.0539991523374876,2.0
0.402040204020402,-0.7009342849757443,0.27951162170946925,-1.20616286176765,2.0
0.40304030403040303,-0.7079643380018527,0.27669194441843875,-1.1615205767020436,2.0
0.40404040404040403,-0.7765601046170952,0.2738706529800977,-1.007349248454564,2.0
0.40504050405040504,-0.6075364640572688,0.27104777599789914,-1.1527002173178678,2.0
0.40604060406040604,-0.6162883427660163,0.2682233420795682,-1.1536917031016491,2.0
0.40704070407040704,-0.6438907096403337,0.2653973798368163,-1.116948211582891,2.0
0.40804080408040805,-0.6581581451687051,0.26256991788505735,-1.1738924032555549,2.0
0.40904090409040905,-0.6820181574311671,0.2597409848431207,-1.162451102037944,2.0
0.41004100410041006,-0.853522532899196,0.2569106093329678,-1.0844981282347148,2.0
0.41104110411041106,-0.6943600692724485,0.25407881997940623,-1.164475053297158,2.0
0.41204120412041206,-0.5899231934596648,0.2512456454098064,-0.9597007126348388,2.0
0.41304130413041307,-0.5965258527066408,0.24841111425381476,-0.9313477272779983,2.0
0.41404140414041407,-0.7153298010079602,0.24557525514307094,-0.8521106416615294,2.0
0.415041504150415,-0.7923143602495389,0.24273809671092222,-0.8531259771716686,2.0
0.416041604160416,-0.9031481996084819,0.23989966759213954,-1.0677827835001892,2.0
0.417041704170417,-0.7589302078177634,0.23705999642263317,-0.8917148336194632,2.0
0.41804180418041803,-0.6500808837041805,0.2342191118391681,-0.8025027281243121,2.0
0.41904190419041903,-0.77541499777354,0.23137704247908072,-1.0266456708098715,2.0
0.42004200420042004,-0.6923778834025552,0.22853381697999386,-1.208440391302894,2.0
0.42104210421042104,-0.7406981466167595,0.22568946397953332,-1.227961705149061,2.0
0.42204220422042205,-0.5014707618408053,0.22284401211504423,-1.0715971434373655,2.0
0.42304230423042305,-0.7826624430347741,0.21999749002330707,-0.9945997973965133,2.0
0.42404240424042405,-0.6888272416366609,0.21714992634025468,-0.9072991061273386,2.0
0.42504250425042506,-0.48160211195546904,0.2143013497006879,-0.9542926301747965,2.0
0.42604260426042606,-0.7750913496100348,0.2114517887379931,-0.7218084803579148,2.0
0.42704270427042706,-0.7176406502122711,0.20860127208385834,-0.8181181076682963,2.0
0.42804280428042807,-0.497373716068443,0.20574982836799138,-0.8994013445083617,2.0
0.4290429042904291,-0.8759343111198189,0.20289748621783532,-0.9106583299480564,2.0
0.43004300430043,-0.6930226625399224,0.20004427425828689,-0.8771003688140789,2.0
0.431043104310431,-0.8004602215246707,0.19719022111141332,-0.9724843523880594,2.0
0.43204320432043203,-0.9959877560880144,0.1943353553961701,-1.0376464054898211,2.0
0.43304330433043303,-0.79700195919238,0.19147970572811854,-1.039885581779549,2.0
0.43404340434043404,-0.9870339345677404,0.18862330071914313,-1.1063278771618332,2.0
0.43504350435043504,-0.8720062630722294,0.1857661689771707,-1.0731406400383248,2.0
0.43604360436043604,-0.9309436510173231,0.1829083391058869,-1.1373945426438492,2.0
0.43704370437043705,-0.9238116034640481,0.18004983970445557,-1.0816059291391324,2.0
0.43804380438043805,-0.9538581141867033,0.17719069936723653,-0.9865460572600617,2.0
0.43904390439043905,-0.7778724567545159,0.17433094668350502,-0.8877753301243217,2.0
0.44004400440044006,-0.819851753307486,0.17147061023716925,-1.0589976674118258,2.0
0.44104410441044106,-0.8780054758397481,0.16860971860649002,-1.061768817264287,2.0
0.44204420442044207,-0.666226145523452,0.16574830036379942,-1.0825504826450036,2.0
0.44304430443044307,-0.9295182482505006,0.162886384075221,-1.136345511727575,2.0
0.4440444044404441,-0.9309121298701629,0.16002399830038755,-0.9784134826938135,2.0
0.445044504450445,-0.7687089289944198,0.15716117159216206,-0.9076873807306026,2.0
0.446044604460446,-0.7668121521687351,0.15429793249635684,-0.9952616578397686,2.0
0.44704470447044703,-0.8697672029537464,0.15143430955145368,-1.0839486737581008,2.0
0.44804480448044803,-0.962454251220083,0.14857033128832378,-1.0394222954364227,2.0
0.44904490449044904,-0.8633977658021781,0.14570602622994835,-1.0978984604839512,2.0
0.45004500450045004,-0.8973479544634939,0.14284142289113866,-1.119991859557343,2.0
0.45104510451045104,-0.9920813267572898,0.13997654977825766,-1.135323105044138,2.0
0.45204520452045205,-0.9022916203192068,0.1371114353889397,-1.3049797633158333,2.0
0.45304530453045305,-0.851297956009926,0.13424610821181227,-1.3076678599572666,2.0
0.45404540454045406,-0.9898986349699591,0.13138059672621707,-1.4557115644612226,2.0
0.45504550455045506,-0.9777906962014037,0.12851492940193218,-1.3992577341743186,2.0
0.45604560456045606,-0.9195957646730235,0.1256491346988926,-1.311842912509535,2.0
0.45704570457045707,-0.9687760946465536,0.12278324106691305,-1.2171294217322541,2.0
0.45804580458045807,-1.0539424445816503,0.11991727694540946,-1.3580388153457856,2.0
0.4590459045904591,-1.064645790723418,0.1170512707631224,-1.4315560978416453,2.0
0.46004600460046,-0.8094699134226506,0.11418525093783839,-1.3040180606844967,2.0
0.461046104610461,-0.9080124033431107,0.11131924587611267,-1.3581936284916434,2.0
0.46204620462046203,-0.9367808644519229,0.10845328397299375,-1.434075576481817,2.0
0.46304630463046303,-0.8831549716901292,0.10558739361174488,-1.441816156380384,2.0
0.46404640464046404,-0.7999282453126759,0.10272160316356836,-1.437961558406912,2.0
0.46504650465046504,-1.0034999524115276,0.09985594098732885,-1.5125115453930553,2.0
0.46604660466046605,-1.0682721420469747,0.09699043542927806,-1.5429182131605765,2.0
0.46704670467046705,-0.8860869564400614,0.09412511482277772,-1.3708815971580801,2.0
0.46804680468046805,-1.055377437661637,0.09126000748802476,-1.249809736049102,2.0
0.46904690469046906,-0.867330482027667,0.08839514173177553,-1.160039271672013,2.0
0.47004700470047006,-0.8167079025519601,0.08553054584707143,-1.139291214915852,2.0
0.47104710471047107,-0.8839431477331574,0.0826662481129629,-1.235446642735452,2.0
0.47204720472047207,-1.174526349305516,0.07980227679423552,-1.3309140066351857,2.0
0.4730473047304731,-1.0954897168751687,0.07693866014113522,-1.266613175750103,2.0
0.4740474047404741,-0.9792854465323816,0.07407542638909502,-1.241058745364077,2.0
0.475047504750475,-1.0931860463944816,0.07121260375846007,-1.3095233977887897,2.0
0.47604760476047603,-1.1631082546536125,0.06835022045421407,-1.3808905480036406,2.0
0.47704770477047703,-1.0054729744437216,0.06548830466570668,-1.4417760416505239,2.0
0.47804780478047804,-0.7964271300541936,0.0626268845663805,-1.3915815836622025,2.0
0.47904790479047904,-0.9883331126495875,0.05976598831349718,-1.4015913199105292,2.0
0.48004800480048004,-1.1312992233211923,0.056905644047865675,-1.3927029512087103,2.0
0.48104810481048105,-0.963617430634697,0.054045879893569584,-1.4586005734341383,2.0
0.48204820482048205,-0.9966088099116128,0.05118672395769593,-1.407735949515361,2.0
0.48304830483048306,-0.9803855118723453,0.04832820433006223,-1.5476735795302272,2.0
0.48404840484048406,-1.1861866987125285,0.04547034908294582,-1.353699627677789,2.0
0.48504850485048506,-0.9576288889677622,0.042613186270812314,-1.3507500998923798,2.0
0.48604860486048607,-0.8931867087908939,0.039756743930045524,-1.231477508634234,2.0
0.48704870487048707,-1.1608678555082745,0.03690105007867565,-1.21054398089673,2.0
0.4880488048804881,-1.0980552988083274,0.03404613271610974,-1.0815323523165554,2.0
0.4890489048904891,-0.9029474644730776,0.031192019822861343,-1.204330932124829,2.0
0.49004900490049,-1.1116999437610058,0.02833873936028175,-1.260765620465392,2.0
0.49104910491049103,-1.2067321189929292,0.02548631927028857,-1.2384476229870844,2.0
0.49204920492049203,-1.1421004850845553,0.022634787475098415,-1.2515270945768728,2.0
0.49304930493049304,-1.3294662928731467,0.019784171876957902,-1.2849504694919471,2.0
0.49404940494049404,-1.147187110613257,0.016934500357874097,-1.2582571708036578,2.0
0.49504950495049505,-1.1470635716158104,0.014085800779347162,-1.2789717513017431,2.0
0.49604960496049605,-0.9599052098143612,0.011238100982102015,-1.2273935446663753,2.0
0.49704970497049705,-1.0122869756338506,0.00839142878582158,-1.405223157284965,2.0
0.49804980498049806,-1.0545911043612382,0.00554581198887831,-1.2729737921955682,2.0
0.49904990499049906,-0.9377399263224767,0.0027012783680680345,-1.2312488661002707,2.0
0.5000500050005,-0.9943389630752024,-0.00014214432165686054,-1.26208831218081,2.0
0.5010501050105011,-1.0991228644619557,-0.002984428347453937,-1.1373258909566129,2.0
0.502050205020502,-0.8587373940482415,-0.005825545998855684,-1.0646770624804747,2.0
0.5030503050305031,-0.9923221370596893,-0.008665469588037369,-1.150226660583852,2.0
0.504050405040504,-0.9700743330921799,-0.01150417145007956,-1.2248681030209347,2.0
0.5050505050505051,-1.049969835380332,-0.014341623943235496,-1.236337150585614,2.0
0.506050605060506,-0.9355645161781327,-0.01717779944919377,-1.1488252550525524,2.0
0.5070507050705071,-1.1669301454529784,-0.020012670373345007,-1.243898076059589,2.0
0.508050805080508,-0.9896153857048062,-0.022846209145043053,-1.1665850105962592,2.0
0.5090509050905091,-0.8854563586139443,-0.02567838821787101,-1.1272036483393135,2.0
0.51005100510051,-1.0030594913173976,-0.0285091800699025,-1.0810850383437214,2.0
0.5110511051105111,-1.064399362232715,-0.03133855720396703,-1.0461760467197883,2.0
0.512051205120512,-0.8989732439031551,-0.034166492147909726,-0.9971160639720845,2.0
0.513051305130513,-1.0087809342483114,-0.03699295745485565,-1.0563987019170804,2.0
0.5140514051405141,-0.8969672947609126,-0.03981792570347157,-1.018839124739524,2.0
0.515051505150515,-0.8741306122823435,-0.04264136949822577,-1.1387750547374218,2.0
0.5160516051605161,-0.9596233105246732,-0.04546326146965138,-1.1255273456856985,2.0
0.517051705170517,-1.0927159166772271,-0.04828357427460511,-1.2367167174804365,2.0
0.5180518051805181,-0.9535976574380072,-0.051102280596530214,-1.2881972599183156,2.0
0.519051905190519,-0.9762816270544552,-0.0539193531457136,-1.3233052072063192,2.0
0.5200520052005201,-1.1165341172250638,-0.056734764659548055,-1.2342336310138742,2.0
0.521052105210521,-0.8819934106059781,-0.05954848790278946,-1.4147443809829037,2.0
0.5220522052205221,-0.9595000847716023,-0.062360495667818226,-1.4359156623072433,2.0
0.523052305230523,-1.000602609831951,-0.06517076077489499,-1.319116339259592,2.0
0.5240524052405241,-0.7678797851875485,-0.06797925607242127,-1.3514482900019995,2.0
0.525052505250525,-1.2680801472820504,-0.07078595443719518,-1.2267177288933735,2.0
0.5260526052605261,-0.9933904860178162,-0.07359082877467135,-1.147381102758765,2.0
0.527052705270527,-1.1287609236202434,-0.0763938520192149,-1.1127338131929576,2.0
0.528052805280528,-0.9900841729792216,-0.07919499713436115,-0.9986825742103561,2.0
0.5290529052905291,-1.0584824576917504,-0.08199423711306973,-1.0410728167436127,2.0
0.53005300530053,-0.9124189423011887,-0.08479154497798065,-0.9324595270748696,2.0
0.5310531053105311,-1.0082837153956368,-0.08758689378167156,-1.0233837818446185,2.0
0.532053205320532,-0.8614351381990315,-0.09038025660691017,-1.1218211651710757,2.0
0.5330533053305331,-0.8837323836642804,-0.09317160656691124,-1.1016328914032432,2.0
0.534053405340534,-0.9214793262160633,-0.0959609168055888,-1.2530270583191974,2.0
0.5350535053505351,-1.1429181239188193,-0.09874816049781253,-1.3159802026915586,2.0
0.536053605360536,-0.7910170464020498,-0.10153331084965828,-1.268429657431155,2.0
0.5370537053705371,-1.0337365442444786,-0.10431634109866358,-1.236883958841894,2.0
0.538053805380538,-0.7003917252037952,-0.1070972245140782,-0.996654072614851,2.0
0.5390539053905391,-1.0137285344084321,-0.10987593439711883,-0.9455511775001875,2.0
0.54005400540054,-0.912826510696854,-0.11265244408121805,-0.8907892713800497,2.0
0.5410541054105411,-0.7636768349026188,-0.11542672693227804,-0.9932993459787458,2.0
0.5420542054205421,-0.9057016973564891,-0.11819875634891956,-0.8840552747646746,2.0
0.543054305430543,-0.8572855564367804,-0.12096850576273477,-0.719071834484355,2.0
0.5440544054405441,-0.9655737323880503,-0.12373594863853532,-0.7860939841812884,2.0
0.545054505450545,-0.9959137613866789,-0.12650105847460222,-0.9053974772422291,2.0
0.5460546054605461,-0.8979127167753702,-0.12926380880293697,-1.0142340134828445,2.0
0.547054705470547,-0.9270059433853589,-0.13202417318950757,-0.8891761641074188,2.0
0.5480548054805481,-0.8418166209363064,-0.13478212523449926,-1.039178029121755,2.0
0.549054905490549,-0.6984614270394415,-0.13753763857256054,-0.8926649919646494,2.0
0.5500550055005501,-0.961957406942025,-0.14029068687305302,-0.9760314989026697,2.0
0.551055105510551,-0.8760342097667222,-0.1430412438402955,-0.8384351980383231,2.0
0.5520552055205521,-0.8488191574124855,-0.14578928321381326,-0.8528949894881136,2.0
0.553055305530553,-0.781283552443082,-0.148534778768582,-0.7723950122188018,2.0
0.5540554055405541,-0.8550293379086314,-0.15127770431527596,-0.7938494816216044,2.0
0.555055505550555,-0.9071117528448187,-0.15401803370051045,-0.8984291336179075,2.0
0.5560556055605561,-0.9866282999324241,-0.156755740807089,-0.9028908246174178,2.0
0.5570557055705571,-0.9743681976034599,-0.1594907995542457,-1.0162347214316698,2.0
0.558055805580558,-0.7389838469189018,-0.1622231838978912,-1.1882475352615707,2.0
0.5590559055905591,-0.8497783736487795,-0.16495286783085453,-0.9680908173971322,2.0
0.56005600560056,-0.8205296218848152,-0.1676798253831258,-0.8908882236280281,2.0
0.5610561056105611,-0.8659632978713796,-0.1704040306221009,-0.7791736652302585,2.0
0.562056205620562,-0.829491440874756,-0.17312545765282067,-0.6016194585158001,2.0
0.5630563056305631,-0.7160585574458677,-0.1758440806182147,-0.7528490482854432,2.0
0.564056405640564,-0.846089641957756,-0.17855987369934057,-0.7757080509822645,2.0
0.5650565056505651,-0.9678860091658562,-0.18127281111562688,-0.7187629696840625,2.0
0.566056605660566,-0.7389063693582243,-0.1839828671251105,-0.7217842655290423,2.0
0.5670567056705671,-0.8633852743462245,-0.18669001602467852,-0.6756065202299035,2.0
0.568056805680568,-0.8502752594409331,-0.1893942321503057,-0.6495412626207462,2.0
0.5690569056905691,-0.882415283904663,-0.19209548987729524,-0.6393997601526173,2.0
0.57005700570057,-0.739097842844269,-0.19479376362051445,-0.7427026073590616,2.0
0.5710571057105711,-0.6641405253002441,-0.19748902783463462,-0.7807611258223051,2.0
0.5720572057205721,-0.8090322700300326,-0.2001812570143665,-0.8949117923135037,2.0
0.573057305730573,-0.7000524751743756,-0.20287042569469904,-1.0376023485041959,2.0
0.5740574057405741,-0.648235773312182,-0.2055565084511338,-1.0151437433910349,2.0
0.575057505750575,-0.8226330340631564,-0.208239479899921,-1.0693799712545917,2.0
0.5760576057605761,-0.681478945118028,-0.21091931469829625,-1.0755661664678282,2.0
0.577057705770577,-0.7254244438528079,-0.21359598754471293,-1.3167857338993696,2.0
0.5780578057805781,-0.6572866689346794,-0.21626947317907916,-1.3559885505689342,2.0
0.579057905790579,-0.6332829463174416,-0.21893974638298813,-1.113600515469532,2.0
0.5800580058005801,-0.7585917765604743,-0.22160678197995537,-1.1694537735134773,2.0
0.581058105810581,-0.5484973084535466,-0.22427055483564756,-1.0792676510506753,2.0
0.5820582058205821,-0.8185658073572654,-0.2269310398581181,-0.876262834568681,2.0
0.583058305830583,-0.6727900152666945,-0.22958821199803606,-0.8291670563289556,2.0
0.5840584058405841,-0.7036601088158771,-0.23224204624891934,-0.8488399754084551,2.0
0.585058505850585,-0.4855685547529096,-0.23489251764736377,-0.9633276215197464,2.0
0.5860586058605861,-0.47517140478430514,-0.23753960127327528,-0.8393794576638789,2.0
0.5870587058705871,-0.8111729052712955,-0.24018327225009703,-0.7571790917877301,2.0
0.588058805880588,-0.5666821725103728,-0.24282350574504027,-0.816790826424721,2.0
0.5890589058905891,-0.8598646727634505,-0.24546027696931305,-0.9308625430676547,2.0
0.59005900590059,-0.5572846412144682,-0.2480935611783466,-0.8508478819504606,2.0
0.5910591059105911,-0.7525749955193187,-0.25072333367202465,-1.033840015101557,2.0
0.592059205920592,-0.6138426880782926,-0.25334956979490897,-1.0972078808721752,2.0
0.5930593059305931,-0.6290651422494011,-0.25597224493646753,-1.2214881407137854,2.0
0.594059405940594,-0.6828772860251014,-0.25859133453129846,-1.1074122111753961,2.0
0.5950595059505951,-0.5802088575502735,-0.2612068140593571,-0.9465365362799956,2.0
0.596059605960596,-0.5476919361776702,-0.2638186590461791,-0.8099154858771904,2.0
0.5970597059705971,-0.5958886163027964,-0.26642684506310743,-0.783098938457198,2.0
0.598059805980598,-0.6117020684111972,-0.2690313477275128,-0.617481690943642,2.0
0.5990599059905991,-0.7191186130343278,-0.27163214270301966,-0.6824878585934195,2.0
0.6000600060006,-0.3773994947710584,-0.2742292056997266,-0.7356736648184382,2.0
0.6010601060106011,-0.7244895493444843,-0.2768225124744311,-0.9481704008949587,2.0
0.6020602060206021,-0.5553211411401641,-0.2794120388308483,-0.7388842225693104,2.0
0.603060306030603,-0.508955119057473,-0.2819977606198338,-0.881866143108007,2.0
0.6040604060406041,-0.4990014480031254,-0.28457965373960403,-0.9737647155365172,2.0
0.605060506050605,-0.6430225529342194,-0.2871576941359549,-1.0783210953437123,2.0
0.6060606060606061,-0.6297167311405325,-0.28973185780248273,-1.1173202447969195,2.0
0.607060706070607,-0.6853732943412032,-0.29230212078080137,-1.045907758673411,2.0
0.6080608060806081,-0.6152670879087762,-0.2948684591607626,-1.021425082650774,2.0
0.609060906090609,-0.2864806940207405,-0.2974308490806712,-0.9458754509554611,2.0
0.6100610061006101,-0.5434725149244922,-0.2999892667275042,-1.0296539565429892,2.0
0.611061106110611,-0.37715983687270366,-0.30254368833712575,-1.1940400151903632,2.0
0.6120612061206121,-0.5014775885798547,-0.305094090194505,-1.1955848263291908,2.0
0.613061306130613,-0.4547099153471367,-0.3076404486339288,-1.3670096775283476,2.0
0.6140614061406141,-0.5626723893107306,-0.31018274003921925,-1.4195921213003904,2.0
0.6150615061506151,-0.5295346714324309,-0.3127209408439455,-1.503066039757427,2.0
0.6160616061606161,-0.5534458672532486,-0.31525502753164,-1.7110100952003595,2.0
0.6170617061706171,-0.34830010045002047,-0.31778497663600846,-1.6536985538111932,2.0
0.618061806180618,-0.5185846018387797,-0.3203107647411448,-1.6133919087531698,2.0
0.6190619061906191,-0.2552956438432723,-0.32283236848174274,-1.794184433719158,2.0
0.62006200620062,-0.4502732387723574,-0.3253497645433052,-1.819898142054736,2.0
0.6210621062106211,-0.49159703709504415,-0.32786292966235764,-1.9865740157889045,2.0
0.622062206220622,-0.23630844554903868,-0.33037184062665564,-2.1363124962731033,2.0
0.6230623062306231,-0.556097371806651,-0.33287647427539724,-2.1462150843891457,2.0
0.624062406240624,-0.4680972630673764,-0.3353768074994289,-2.017583968162554,2.0
0.6250625062506251,-0.468654456145445,-0.3378728172414563,-2.1656584189666934,2.0
0.626062606260626,-0.4143585178137426,-0.3403644804962501,-2.162775605947622,2.0
0.6270627062706271,-0.51403648939693,-0.34285177431085556,-2.297247872580527,2.0
0.628062806280628,-0.3127152954954533,-0.3453346757847959,-2.3133057153131285,2.0
0.6290629062906291,-0.3059784870459029,-0.3478131620702811,-2.218540764864444,2.0
0.6300630063006301,-0.37831973322928375,-0.3502872103724114,-2.2002773928615897,2.0
0.6310631063106311,-0.40261886288767645,-0.35275679794938347,-2.176460930298005,2.0
0.6320632063206321,-0.25816325905448634,-0.35522190211269267,-2.0674279303924457,2.0
0.633063306330633,-0.32705321719116737,-0.3576825002273389,-2.1050526193098404,2.0
0.6340634063406341,-0.45703368942616096,-0.36013856971202757,-2.158032437833272,2.0
0.635063506350635,-0.3743465025899745,-0.3625900880393723,-2.2895249518047494,2.0
0.6360636063606361,-0.42342365702441365,-0.36503703273609805,-2.385695134346372,2.0
0.637063706370637,-0.46527456387192534,-0.3674793813832395,-2.3959500383263,2.0
0.6380638063806381,-0.3695427305979439,-0.36991711161634466,-2.394750432684478,2.0
0.639063906390639,-0.22611284086420455,-0.37235020112567146,-2.3485436139098907,2.0
0.6400640064006401,-0.2884033278492907,-0.3747786276563894,-2.3446430661657054,2.0
0.641064106410641,-0.1405473193542919,-0.37720236900877735,-2.25751049269116,2.0
0.6420642064206421,-0.248765227582858,-0.37962140303842096,-2.3749831339041143,2.0
0.643064306430643,-0.16381653176394195,-0.38203570765641076,-2.3578237837833096,2.0
0.6440644064406441,-0.13371518703147078,-0.3844452608295388,-2.4304454819875474,2.0
0.6450645064506451,0.009468958358706897,-0.3868500405804928,-2.415217059531386,2.0
0.6460646064606461,-0.25393941468953385,-0.38925002498805605,-2.3204114964817637,2.0
0.6470647064706471,-0.2406526630785848,-0.39164519218729654,-2.3265639255912265,2.0
0.648064806480648,-0.18564046454350608,-0.3940355203697653,-2.168760763265036,2.0
0.6490649064906491,-0.0644318714714704,-0.39642098778368945,-2.103689736816467,2.0
0.65006500650065,-0.22753529671569273,-0.3988015727341621,-2.062405839624708,2.0
0.6510651065106511,-0.3145420492969584,-0.40117725358333817,-2.116893578918981,2.0
0.652065206520652,-0.25421274836601704,-0.4035480087506242,-2.148823195894707,2.0
0.6530653065306531,0.0038153078672993335,-0.40591381671286936,-2.2045433354307202,2.0
0.654065406540654,0.016495837020149992,-0.40827465600455637,-2.2045496864531606,2.0
0.6550655065506551,0.005438461611239981,-0.41063050521799105,-2.114811689065696,2.0
0.656065606560656,-0.16479900438549452,-0.4129813430034896,-2.016606034531403,2.0
0.6570657065706571,-0.062302993118596176,-0.4153271480695709,-1.9222999011614885,2.0
0.658065806580658,-0.1753718144075758,-0.4176678991831396,-1.8956824374597052,2.0
0.6590659065906591,-0.07115481648914948,-0.42000357516967646,-1.871096988540353,2.0
0.6600660066006601,0.21726784692296297,-0.4223341549134235,-1.8186394493947882,2.0
0.6610661066106611,-0.1856476328043516,-0.4246596173575698,-1.8067659340688724,2.0
0.6620662066206621,-0.059482051162361466,-0.42697994150443686,-1.9235912973349671,2.0
0.663066306630663,-0.1452931988837429,-0.42929510641566254,-2.0588388719586237,2.0
0.6640664066406641,0.03515393660404223,-0.43160509121238555,-1.9836126898383861,2.0
0.665066506650665,-0.004113389998796967,-0.4339098750754278,-1.7189391769698372,2.0
0.6660666066606661,-0.06770278805078277,-0.43620943724547784,-1.7042933067734887,2.0
0.667066706670667,-0.053615274964850086,-0.4385037570232703,-1.8345217343061018,2.0
0.6680668066806681,-0.08749883411233801,-0.44079281376977136,-1.9047358031329378,2.0
0.669066906690669,-0.10839173762542234,-0.44307658690635393,-1.9878686988667533,2.0
0.6700670067006701,0.08519693863382939,-0.4453550559149814,-2.013396302343527,2.0
0.671067106710671,0.19049966052963774,-0.44762820033838513,-2.012851569497859,2.0
0.6720672067206721,-0.004967733548470951,-0.44989599978024275,-1.9787680545178319,2.0
0.673067306730673,-0.011883687425666839,-0.4521584339053563,-1.6089636215830396,2.0
0.6740674067406741,-0.10148625407399592,-0.4544154824398298,-1.69608822347785,2.0
0.6750675067506751,0.05322273497590261,-0.45666712517124364,-1.7557373703434629,2.0
0.6760676067606761,0.1734826747252241,-0.4589133419488336,-1.625331323720295,2.0
0.6770677067706771,0.18088997292075398,-0.46115411268366213,-1.576908638180515,2.0
0.678067806780678,0.20001539208430136,-0.46338941734879546,-1.62285723347302,2.0
0.6790679067906791,0.031457728241409744,-0.465619235979477,-1.5690422776531576,2.0
0.68006800680068,0.3505448213977796,-0.4678435486732981,-1.542882280290775,2.0
0.6810681068106811,-0.05286126811699163,-0.4700623355903729,-1.4769128216173524,2.0
0.682068206820682,0.10458000864703686,-0.4722755769535088,-1.3665684197905938,2.0
0.6830683068306831,0.15043738574443016,-0.4744832530483773,-1.3361688468953836,2.0
0.684068406840684,0.3832043847672316,-0.4766853442236845,-1.3764239225228037,2.0
0.6850685068506851,0.22993236291847716,-0.4788818308913408,-1.395328555785987,2.0
0.686068606860686,0.1346979736622585,-0.4810726935266283,-1.34693858925043,2.0
0.6870687068706871,0.08350649880202515,-0.48325791266837215,-1.4440933698841298,2.0
0.688068806880688,0.18008470700743576,-0.4854374689191035,-1.5007227630737736,2.0
0.6890689068906891,0.08600901807728745,-0.48761134294523134,-1.3243731140891315,2.0
0.6900690069006901,0.2073747610501926,-0.4897795154772034,-1.5280561884890318,2.0
0.6910691069106911,0.17449482467233357,-0.4919419673096752,-1.5948543038326264,2.0
0.6920692069206921,0.13096654292488547,-0.49409867930167356,-1.7137047778771042,2.0
0.693069306930693,-0.014972688302883314,-0.49624963237676,-1.767710578650025,2.0
0.6940694069406941,0.17279391842565917,-0.4983948075231945,-1.719795124970255,2.0
0.695069506950695,0.3224223583163829,-0.500534185794098,-1.687851735515033,2.0
0.6960696069606961,0.3910358239508167,-0.5026677483076141,-1.5375474412807772,2.0
0.697069706970697,0.29879392149600387,-0.50479547624707,-1.4831588279122014,2.0
0.6980698069806981,0.3504523798768165,-0.506917350861138,-1.5218572062703974,2.0
0.699069906990699,0.2811369607625429,-0.5090333534639923,-1.6132819679965902,2.0
0.7000700070007001,0.40599662757342214,-0.5111434654354723,-1.7294744397784823,2.0
0.701070107010701,0.2516260847213684,-0.5132476682212367,-1.8423192299088382,2.0
0.7020702070207021,0.4002781861756904,-0.5153459433329237,-1.6750134708285946,2.0
0.7030703070307031,0.39629768578453195,-0.517438272348307,-1.6188855075275148,2.0
0.7040704070407041,0.4260173462303498,-0.5195246369114512,-1.7218811196023271,2.0
0.7050705070507051,0.3542739479888504,-0.5216050187328687,-1.8007947390529964,2.0
0.7060706070607061,0.4872842736921841,-0.5236793995896731,-1.6452218041183864,2.0
0.7070707070707071,0.4574723781834667,-0.5257477613257331,-1.6721072461842437,2.0
0.708070807080708,0.43472581120990095,-0.5278100858518272,-1.7142815008749903,2.0
0.7090709070907091,0.3005751002128574,-0.5298663551457947,-1.4597870775832302,2.0
0.71007100710071,0.4017855449171614,-0.5319165512526872,-1.1501165610204198,2.0
0.7110711071107111,0.14283633091618353,-0.5339606562849221,-1.0962960804797317,2.0
0.712071207120712,0.5797255218582889,-0.5359986524224291,-1.1100722742192153,2.0
0.7130713071307131,0.4651379996437929,-0.5380305219128036,-1.2625507148231365,2.0
0.714071407140714,0.4030378946853433,-0.540056247071453,-1.232027989986676,2.0
0.7150715071507151,0.511782224433833,-0.5420758102817462,-1.182909975782314,2.0
0.716071607160716,0.3457582411159385,-0.54408919399516,-1.0443111143556603,2.0
0.7170717071707171,0.4140046218460973,-0.5460963807314266,-1.0443448070593215,2.0
0.7180718071807181,0.4925521057871454,-0.5480973530786782,-0.9379096689832827,2.0
0.7190719071907191,0.18091311328719784,-0.5500920936935951,-0.8908259475714333,2.0
0.7200720072007201,0.399107941884736,-0.5520805853015459,-0.8991063390123423,2.0
0.7210721072107211,0.5125041801057281,-0.554062810696735,-0.7793260045405751,2.0
0.7220722072207221,0.3701854964808974,-0.5560387527423437,-0.781596136260066,2.0
0.723072307230723,0.5002681649521952,-0.5580083943706727,-0.767253280862748,2.0
0.7240724072407241,0.5156678104835029,-0.5599717185832837,-0.5794693300884267,2.0
0.725072507250725,0.47188706642924444,-0.56192870845114,-0.5591663316306169,2.0
0.7260726072607261,0.4910224739874446,-0.563879347114747,-0.6052760143278385,2.0
0.727072707270727,0.549170120843722,-0.5658236177842908,-0.5553785145736595,2.0
0.7280728072807281,0.6506750738813795,-0.5677615037397774,-0.5271319035114953,2.0
0.729072907290729,0.6619925471562289,-0.569692988331169,-0.4213975462581946,2.0
0.7300730073007301,0.4192257220372283,-0.5716180549785237,-0.4911851060595585,2.0
0.731073107310731,0.39268224649200834,-0.5735366871721288,-0.49644220974483055,2.0
0.7320732073207321,0.5305803908369711,-0.5754488684726381,-0.4709388755516226,2.0
0.7330733073307331,0.5188781226532726,-0.5773545825112066,-0.5223665139221325,2.0
0.7340734073407341,0.5844583282819866,-0.5792538129896235,-0.5506723966806369,2.0
0.7350735073507351,0.6464092417492363,-0.5811465436804467,-0.46095647266275575,2.0
0.7360736073607361,0.6086532557060828,-0.5830327584271344,-0.30111887757401257,2.0
0.7370737073707371,0.8060883656856219,-0.5849124411441765,-0.12048149792382996,2.0
0.738073807380738,0.4729311630501175,-0.5867855758172277,-0.1259547908194172,2.0
0.7390739073907391,0.7407257660843156,-0.5886521465032352,-0.20958745081344288,2.0
0.74007400740074,0.6382880604125981,-0.5905121373305694,-0.2351559477213936,2.0
0.7410741074107411,0.7538337052987444,-0.5923655324991529,-0.19241306357480004,2.0
0.742074207420742,0.5698224997140908,-0.5942123162805869,-0.036528691159118325,2.0
0.7430743074307431,0.621214283421746,-0.5960524730182813,0.1478615773969294,2.0
0.744074407440744,0.6319306240625282,-0.5978859871275777,0.24310786265216877,2.0
0.7450745074507451,0.51130160532802,-0.5997128430958772,0.19594969081941477,2.0
0.746074607460746,0.49424708252102584,-0.6015330254827653,0.17786977355162328,2.0
0.7470747074707471,0.8220271428355275,-0.6033465189201351,0.20924007292417102,2.0
0.7480748074807481,0.6405228970307938,-0.6051533081123112,0.154528827133235,2.0
0.7490749074907491,0.6741841099403073,-0.6069533778361722,0.1464405353600875,2.0
0.7500750075007501,0.7766826604006712,-0.6087467129412722,0.15333329412692573,2.0
0.7510751075107511,0.8335168200771855,-0.6105332983499634,0.20781603485774192,2.0
0.7520752075207521,0.5557318604411252,-0.6123131190575136,0.06851889652446363,2.0
0.753075307530753,0.7446513428992061,-0.6140861601322284,0.020939002513333378,2.0
0.7540754075407541,0.7132571329244083,-0.6158524067155693,0.07757146166226236,2.0
0.755075507550755,0.7819330556982254,-0.6176118440222699,0.20834760393042281,2.0
0.7560756075607561,0.7645280946924219,-0.6193644573404555,0.3337569016175572,2.0
0.757075707570757,0.9169891871126459,-0.6211102320317583,0.3140905093350941,2.0
0.7580758075807581,0.8889040674751386,-0.6228491535314333,0.2690858154952088,2.0
0.759075907590759,0.826518241471287,-0.6245812073484731,0.23770778655684263,2.0
0.7600760076007601,0.6337420370090981,-0.6263063790657225,0.4035324461017988,2.0
0.761076107610761,0.8719881759348749,-0.6280246543399902,0.34366482273695215,2.0
0.7620762076207621,0.7166786241525114,-0.6297360189021646,0.33686489879172393,2.0
0.7630763076307631,0.8229574927450197,-0.6314404585573213,0.3030715955560761,2.0
0.7640764076407641,0.9477869700577516,-0.6331379591848381,0.20910876626413338,2.0
0.7650765076507651,0.7663649213095548,-0.6348285067385022,0.13241071234307883,2.0
0.7660766076607661,0.8952719776323899,-0.6365120872466218,0.2785741513220135,2.0
0.7670767076707671,0.7586235390054521,-0.6381886868121334,0.0406568083101643,2.0
0.768076807680768,0.9161262239581363,-0.6398582916127102,0.07277925028665976,2.0
0.7690769076907691,0.8811020769786532,-0.6415208879008687,-0.003990836703681777,2.0
0.77007700770077,0.7173450592841816,-0.6431764620040761,0.059776287566539424,2.0
0.7710771077107711,0.9298454492659198,-0.6448250003248547,-0.0930180313544864,2.0
0.772077207720772,0.8775806321993572,-0.6464664893408861,-0.019129752595211016,2.0
0.7730773077307731,0.7770825174828583,-0.6481009156051182,-0.08760387249648206,2.0
0.774077407740774,0.8857476725799734,-0.6497282657458641,-0.040307434993650554,2.0
0.7750775077507751,0.7807853949997885,-0.6513485264669074,-0.11619436788566247,2.0
0.7760776077607761,0.8862025404458692,-0.6529616845476034,-0.08186726985248372,2.0
0.7770777077707771,0.7802418243214132,-0.6545677268429786,-0.12201476657241457,2.0
0.7780778077807781,0.7244146580708131,-0.6561666402838321,-0.11273590114095611,2.0
0.7790779077907791,0.6818352154858859,-0.6577584118768339,0.026620253060330803,2.0
0.7800780078007801,0.8903614574602154,-0.6593430287046236,0.036385092666386676,2.0
0.7810781078107811,0.8825662247953315,-0.6609204779259086,0.04158683768135005,2.0
0.7820782078207821,0.8360270034764342,-0.6624907467755597,0.19907632410921836,2.0
0.7830783078307831,0.9474958180000762,-0.6640538225647082,0.05274138501940384,2.0
0.7840784078407841,0.9358309871779815,-0.6656096926808408,0.0004534223315614372,2.0
0.785078507850785,0.8901845867571785,-0.6671583445878937,0.012249912865433527,2.0
0.7860786078607861,0.9449833388383078,-0.6686997658263469,0.14986490366125804,2.0
0.787078707870787,1.0069360505081701,-0.6702339440133166,0.15856333747045445,2.0
0.7880788078807881,0.7595245804851599,-0.6717608668426474,0.19400220829118864,2.0
0.789078907890789,1.0649730752397488,-0.6732805220850033,0.050502452461677616,2.0
0.7900790079007901,0.934948070512915,-0.674792897587959,0.04395244596518614,2.0
0.7910791079107911,0.8941442626328486,-0.6762979812760878,0.11966417816264019,2.0
0.7920792079207921,0.8355627246345537,-0.6777957611510532,0.24761176196242884,2.0
0.7930793079307931,0.8819971817711588,-0.6792862252916938,0.23377370979697615,2.0
0.7940794079407941,1.0926016287944358,-0.6807693618541139,0.26844456729776733,2.0
0.7950795079507951,0.9726898286863738,-0.6822451590717664,0.19065692940418383,2.0
0.7960796079607961,0.8667366265079524,-0.6837136052555414,0.05610952453706391,2.0
0.7970797079707971,0.821302647270819,-0.6851746887938497,0.24675659356224103,2.0
0.7980798079807981,1.0552292268998087,-0.6866283981527072,0.2565516331544019,2.0
0.7990799079907991,1.0558134624962305,-0.688074721875818,0.3536574585483805,2.0
0.8000800080008,0.9091056233443346,-0.6895136485846568,0.30305214646076883,2.0
0.8010801080108011,0.9765134097912975,-0.6909451669785508,0.23619030494496818,2.0
0.802080208020802,0.9161878753508685,-0.6923692658347607,0.2656976105627335,2.0
0.8030803080308031,0.9417414834130309,-0.6937859340085599,0.30274915519133117,2.0
0.804080408040804,0.9644968117366117,-0.6951951604333145,0.2022311902669981,2.0
0.8050805080508051,0.8912977099721503,-0.6965969341205622,-0.1016623611654972,2.0
0.8060806080608061,0.8048493374257237,-0.6979912441600881,0.0062643247581569035,2.0
0.8070807080708071,0.9677012060786819,-0.6993780797200034,-0.0803667851418739,2.0
0.8080808080808081,0.8513161210470067,-0.7007574300468208,0.019276798617690327,2.0
0.8090809080908091,0.9819566067046049,-0.7021292844655292,-0.1357817670970663,2.0
0.8100810081008101,1.0195077196816846,-0.7034936323796689,-0.18368165241725276,2.0
0.8110811081108111,0.9255242113138731,-0.7048504632714045,-0.21176481621142074,2.0
0.8120812081208121,0.8329437557691544,-0.7061997667015977,-0.2314628169227586,2.0
0.8130813081308131,1.1264492749438542,-0.7075415323098805,-0.1009523686622317,2.0
0.8140814081408141,0.8488263775572469,-0.7088757498147242,-0.1493270260742059,2.0
0.815081508150815,0.9595579252947144,-0.7102024090135117,-0.13757665506245864,2.0
0.8160816081608161,1.0851164229143972,-0.7115214997826067,-0.03330923614074355,2.0
0.817081708170817,1.014916569712984,-0.7128330120774207,-0.18678709385103173,2.0
0.8180818081808181,1.014638489736935,-0.7141369359324833,-0.1847932219477677,2.0
0.819081908190819,1.018191750774525,-0.7154332614615083,-0.12774308715519286,2.0
0.8200820082008201,0.8952440626909246,-0.7167219788574593,-0.13456975037627136,2.0
0.8210821082108211,1.11743041504148,-0.7180030783926162,-0.1258798215698389,2.0
0.8220822082208221,0.8815868577531442,-0.7192765504186401,-0.09941263926985776,2.0
0.8230823082308231,0.8525039707283156,-0.7205423853666351,-0.10098758469891356,2.0
0.8240824082408241,1.042481492950764,-0.7218005737472145,-0.04996893254820121,2.0
0.8250825082508251,1.1447383403096762,-0.7230511061505602,-0.03274620583458615,2.0
0.8260826082608261,0.8407756551441824,-0.7242939732464859,-0.168566584061274,2.0
0.8270827082708271,1.1400322297403678,-0.7255291657844968,-0.1506889475167794,2.0
0.8280828082808281,0.9788918255598329,-0.72675667459385,-0.34134367686333933,2.0
0.8290829082908291,1.041255432959023,-0.7279764905836127,-0.37794511413759996,2.0
0.83008300830083,0.8856842071001416,-0.7291886047427214,-0.2801801192902844,2.0
0.8310831083108311,0.812627418804763,-0.7303930081400384,-0.38018638418230905,2.0
0.832083208320832,0.9558027185528082,-0.7315896919244085,-0.5706657131509159,2.0
0.8330833083308331,1.097628253946912,-0.7327786473247154,-0.5073860988881077,2.0
0.834083408340834,1.000299860650491,-0.7339598656499351,-0.3310580571017168,2.0
0.8350835083508351,1.0281088511195655,-0.735133338289192,-0.22229127356929157,2.0
0.8360836083608361,1.1031763441222315,-0.7362990567118106,-0.2820084397566604,2.0
0.8370837083708371,0.9345815901645289,-0.7374570124673683,-0.24910979760593865,2.0
0.8380838083808381,0.933315074765821,-0.7386071971857476,-0.2567969309334897,2.0
0.8390839083908391,0.9608718263562076,-0.7397496025771865,-0.4221466282687802,2.0
0.8400840084008401,0.9726809567815495,-0.7408842204323285,-0.3161494515861633,2.0
0.8410841084108411,1.0082304620267815,-0.7420110426222718,-0.15887996452435685,2.0
0.8420842084208421,0.7903870979916783,-0.7431300610986175,-0.28596219117487476,2.0
0.8430843084308431,0.9392407557564277,-0.7442412678935183,-0.2030655171220492,2.0
0.8440844084408441,0.9621561174660163,-0.7453446551197228,-0.026535496337738242,2.0
0.845084508450845,0.9011462338545462,-0.7464402149706246,0.039815457246810564,2.0
0.8460846084608461,0.9621998920911806,-0.747527939720305,-0.058906969095485075,2.0
0.847084708470847,0.9863167345812,-0.7486078217235772,-0.1639737531729222,2.0
0.8480848084808481,1.0125781378298855,-0.7496798534160326,-0.10727314876658199,2.0
0.849084908490849,0.9199830314398402,-0.7507440273140795,-0.0634662080029175,2.0
0.8500850085008501,1.0593398798722442,-0.7518003360149881,-0.05588251334992407,2.0
0.8510851085108511,0.9703044968991201,-0.7528487721969299,-0.1295553605485776,2.0
0.8520852085208521,1.026286144219121,-0.7538893286190184,0.041538538792404614,2.0
0.8530853085308531,0.8989682945540386,-0.7549219981213483,0.06093032629095986,2.0
0.8540854085408541,1.045744537293466,-0.7559467736250344,-0.09784812580628066,2.0
0.8550855085508551,0.9084197854172125,-0.7569636481322487,-0.3063889912531495,2.0
0.8560856085608561,1.0590359053977503,-0.7579726147262584,-0.3065536613277378,2.0
0.8570857085708571,1.0689145005777732,-0.7589736665714607,-0.5079199849882534,2.0
0.8580858085808581,1.0362955434838719,-0.7599667969134188,-0.5266207570905092,2.0
0.8590859085908591,1.0734501267704144,-0.760951999078897,-0.529759489079784,2.0
0.86008600860086,1.156656408893886,-0.7619292664758928,-0.7420104327223163,2.0
0.8610861086108611,0.9291276781321507,-0.7628985925936709,-0.8038590441374343,2.0
0.862086208620862,1.0192164179208176,-0.7638599710027949,-0.6769756497258315,2.0
0.8630863086308631,0.8419017345798322,-0.7648133953551587,-0.6164080950171128,2.0
0.8640864086408641,0.9664069458019762,-0.7657588593840164,-0.6860830329076081,2.0
0.8650865086508651,0.9978959597643785,-0.7666963569040125,-0.7278077707046179,2.0
0.8660866086608661,0.8857675944051324,-0.7676258818112095,-0.7363843581390852,2.0
0.8670867086708671,0.9932872367427763,-0.7685474280831176,-0.6487547062473233,2.0
0.8680868086808681,0.9565397359807141,-0.7694609897787201,-0.6995154708403176,2.0
0.8690869086908691,1.0136113529340234,-0.7703665610385008,-0.6951388892120811,2.0
0.8700870087008701,1.048857547762023,-0.7712641360844688,-0.6188401637395997,2.0
0.8710871087108711,1.0697938053390956,-0.7721537092201833,-0.5278211922460574,2.0
0.8720872087208721,0.7315206970606705,-0.7730352748307783,-0.5860712501782971,2.0
0.8730873087308731,0.9556370612714964,-0.773908827382984,-0.5978107180599185,2.0
0.8740874087408741,0.8945064190755762,-0.77477436142515,-0.7145568044985,2.0
0.875087508750875,0.8059931155037042,-0.7756318715872671,-0.7608277561244908,2.0
0.8760876087608761,1.050822663365303,-0.7764813525809867,-0.7889740482740294,2.0
0.877087708770877,0.8443438000815157,-0.7773227991996413,-0.7838682415676438,2.0
0.8780878087808781,0.7982296161444322,-0.7781562063182638,-0.8281799237617813,2.0
0.8790879087908791,0.8803186932706598,-0.778981568893604,-0.935696322902492,2.0
0.8800880088008801,0.8764976858325474,-0.7797988819641479,-0.995591238548675,2.0
0.8810881088108811,0.8037776030195726,-0.7806081406501331,-0.879748970862134,2.0
0.8820882088208821,0.9225288953638691,-0.7814093401535641,-0.8493834256752613,2.0
0.8830883088308831,0.9580196709029012,-0.7822024757582282,-0.9426163250048449,2.0
0.8840884088408841,1.015717167428254,-0.782987542829709,-0.981195303253101,2.0
0.8850885088508851,0.6567603691686598,-0.7837645368153986,-1.0515229036952858,2.0
0.8860886088608861,0.7461481200280102,-0.7845334532445127,-0.931367881818646,2.0
0.8870887088708871,0.9003387093597394,-0.7852942877280991,-0.940711013232636,2.0
0.8880888088808881,0.8646909179736707,-0.7860470359590499,-0.7895907362087229,2.0
0.8890889088908891,1.0210017571736445,-0.7867916937121122,-0.8332662646791399,2.0
0.89008900890089,0.7624133542905447,-0.7875282568438956,-0.8099663595462288,2.0
0.8910891089108911,0.6995639818061544,-0.7882567212928817,-0.7993476010522553,2.0
0.892089208920892,0.8911617191853298,-0.7889770830794313,-0.9655209574430359,2.0
0.8930893089308931,0.8241684290134669,-0.7896893383057906,-0.9972212151725368,2.0
0.8940894089408941,0.834323357433181,-0.7903934831560978,-0.8125204301111911,2.0
0.8950895089508951,0.7750152477522654,-0.7910895138963879,-1.1059963566165256,2.0
0.8960896089608961,0.9938386320921069,-0.7917774268745965,-1.0547098846257297,2.0
0.8970897089708971,0.714811462457228,-0.7924572185205643,-1.3156292480665115,2.0
0.8980898089808981,0.851447732455014,-0.7931288853460382,-1.0583878525391495,2.0
0.8990899089908991,0.7943105954737327,-0.7937924239446746,-1.1815886263034374,2.0
0.9000900090009001,0.6924055851062059,-0.7944478309920397,-1.1265406892004366,2.0
0.9010901090109011,0.8658176741720779,-0.7950951032456092,-1.0652734455536998,2.0
0.9020902090209021,0.8720684875045206,-0.7957342375447688,-1.0329622535226324,2.0
0.9030903090309031,0.7109073030790066,-0.7963652308108117,-0.8766992107611957,2.0
0.9040904090409041,0.6496182506110376,-0.7969880800469372,-0.8414364265705903,2.0
0.905090509050905,0.8635825620428692,-0.7976027823382472,-0.8995345613284127,2.0
0.9060906090609061,0.48375209165193345,-0.7982093348517421,-0.8266237058505643,2.0
0.907090709070907,0.6528725740172524,-0.7988077348363164,-0.7133458170382488,2.0
0.9080908090809081,0.8115175100410021,-0.7993979796227537,-0.755689006975917,2.0
0.9090909090909091,0.8183094990276051,-0.7999800666237193,-0.9565224898527206,2.0
0.9100910091009101,0.712825470495199,-0.8005539933337542,-0.9147668388067282,2.0
0.9110911091109111,0.7443986962753908,-0.8011197573292661,-0.7515109035821514,2.0
0.9120912091209121,0.8409575149038503,-0.8016773562685218,-0.7776725333362792,2.0
0.9130913091309131,0.9050759269598805,-0.8022267878916366,-0.7572957722815846,2.0
0.9140914091409141,0.7136321475111788,-0.8027680500205648,-0.9816874787393797,2.0
0.9150915091509151,0.9246298175323965,-0.8033011405590886,-0.9620708865169662,2.0
0.9160916091609161,0.8065416346249201,-0.8038260574928049,-0.7884159981722627,2.0
0.9170917091709171,0.7805324130249193,-0.8043427988891136,-0.7007142738325232,2.0
0.9180918091809182,0.8448902733371848,-0.8048513628972047,-0.7459607495729009,2.0
0.9190919091909191,0.7514580998858975,-0.8053517477480421,-0.670882415948165,2.0
0.92009200920092,0.6866211185200104,-0.8058439517543494,-0.6612890141965062,2.0
0.9210921092109211,0.6646880851475472,-0.8063279733105949,-0.656045899519674,2.0
0.922092209220922,0.8794719788631331,-0.8068038108929726,-0.8021353095939165,2.0
0.9230923092309231,0.5905248814560261,-0.8072714630593867,-0.7846844268723596,2.0
0.9240924092409241,0.4836812404446929,-0.8077309284494318,-0.7490652933015828,2.0
0.9250925092509251,0.7152313955106181,-0.8081822057843747,-0.5582288489382958,2.0
0.9260926092609261,0.6429436478100561,-0.8086252938671336,-0.44023265994576016,2.0
0.9270927092709271,0.597234575632927,-0.809060191582258,-0.5323219266112172,2.0
0.9280928092809281,0.6660215512766446,-0.8094868978959061,-0.7924085066488452,2.0
0.9290929092909291,0.690141418508913,-0.8099054118558242,-0.8340453509728083,2.0
0.9300930093009301,0.6592180447274559,-0.8103157325913215,-0.8394590731576763,2.0
0.9310931093109311,0.5745678518457349,-0.8107178593132471,-0.7826164863829153,2.0
0.9320932093209321,0.6286167188974748,-0.8111117913139654,-0.7361846141566668,2.0
0.9330933093309332,0.6102407687974526,-0.8114975279673299,-0.6083539293158903,2.0
0.9340934093409341,0.45674382010296,-0.8118750687286573,-0.6987133755442632,2.0
0.935093509350935,0.450519184610922,-0.8122444131347003,-0.6529088081540678,2.0
0.9360936093609361,0.5386225912868353,-0.8126055608036189,-0.49518262282421033,2.0
0.9370937093709371,0.4808799473293309,-0.8129585114349526,-0.5621936950632209,2.0
0.9380938093809381,0.6039376291968279,-0.8133032648095905,-0.6237804944168528,2.0
0.9390939093909391,0.4735889789873942,-0.8136398207897403,-0.694763454346804,2.0
0.9400940094009401,0.5925824601757462,-0.8139681793188983,-0.5194823259171927,2.0
0.9410941094109411,0.65518067521725,-0.8142883404218166,-0.5737380230277616,2.0
0.9420942094209421,0.5533472902892772,-0.8146003042044704,-0.6199923185218545,2.0
0.9430943094309431,0.3460240410393569,-0.8149040708540248,-0.6296448991212397,2.0
0.9440944094409441,0.5790254031648453,-0.8151996406388005,-0.6300134860003754,2.0
0.9450945094509451,0.48384155220967956,-0.815487013908238,-0.5577168044291017,2.0
0.9460946094609461,0.6027035627742376,-0.8157661910928626,-0.6749419804482154,2.0
0.9470947094709471,0.6843227371872688,-0.8160371727042474,-0.4976084962543433,2.0
0.9480948094809482,0.4081404761582844,-0.8162999593349755,-0.47239559918279134,2.0
0.9490949094909491,0.43052430065215336,-0.8165545516586016,-0.6105641176611615,2.0
0.95009500950095,0.5720166278449776,-0.816800950429614,-0.671934877242223,2.0
0.9510951095109511,0.5924662178438909,-0.8170391564833938,-0.6791381469919315,2.0
0.9520952095209521,0.5775977053166758,-0.8172691707361738,-0.5507113800691056,2.0
0.9530953095309531,0.49692026053250876,-0.8174909941849989,-0.48259343305225033,2.0
0.9540954095409541,0.4994299353850542,-0.8177046279076821,-0.6028903595245256,2.0
0.9550955095509551,0.39355505737213586,-0.8179100730627621,-0.49596108544654954,2.0
0.9560956095609561,0.24574910830496055,-0.8181073308894601,-0.4578751622827077,2.0
0.9570957095709571,0.35579549313278225,-0.8182964027076344,-0.3735992620425752,2.0
0.9580958095809581,0.49925923927235005,-0.8184772899177357,-0.48917585343822634,2.0
0.9590959095909591,0.3232504665574296,-0.8186499940007607,-0.3624795865032055,2.0
0.9600960096009601,0.19756143442451174,-0.8188145165182049,-0.35949668107568683,2.0
0.9610961096109611,0.3468487217648121,-0.8189708591120158,-0.47490140635164846,2.0
0.9620962096209621,0.38839324390520513,-0.8191190235045436,-0.565792297096822,2.0
0.9630963096309632,0.29249429913951625,-0.8192590114984923,-0.5408413502388478,2.0
0.9640964096409641,0.17100517768664977,-0.81939082497687,-0.4884662068000206,2.0
0.965096509650965,0.3062501089185274,-0.8195144659029373,-0.2977039312225244,2.0
0.9660966096609661,0.4459539312802633,-0.8196299363201567,-0.20461185272956053,2.0
0.9670967096709671,0.1794506697452937,-0.8197372383521397,-0.051991307856692884,2.0
0.9680968096809681,0.19187138277533944,-0.8198363742025938,-0.08805063618386873,2.0
0.9690969096909691,0.23188443787756952,-0.8199273461552689,0.02190122713795737,2.0
0.9700970097009701,0.40914559482498547,-0.8200101565739019,0.12130704213360329,2.0
0.9710971097109711,0.37725313942946054,-0.8200848079021624,0.20064329644183534,2.0
0.9720972097209721,0.22385075667481014,-0.8201513026635956,0.1885786174832641,2.0
0.9730973097309731,0.3239114067953181,-0.8202096434615656,0.4371117781337933,2.0
0.9740974097409741,0.16771244466280222,-0.8202598329791979,0.5834507552121574,2.0
0.9750975097509751,0.18078619604210663,-0.820301873979321,0.5897151713447735,2.0
0.9760976097609761,0.16932541499849663,-0.8203357693044063,0.3026481091323896,2.0
0.9770977097709771,0.2863315458353338,-0.820361521876509,0.164892542297683,2.0
0.9780978097809782,0.20848822356642954,-0.8203791346972072,0.034874775797322725,2.0
0.9790979097909791,0.2622276572830057,-0.8203886108475398,0.13772225192009793,2.0
0.98009800980098,0.174187329861016,-0.8203899534879445,0.14892901658175414,2.0
0.9810981098109811,0.3375078514098435,-0.8203831658581952,0.052610006476033915,2.0
0.9820982098209821,0.2344139741360114,-0.820368251277337,0.14639071564694076,2.0
0.9830983098309831,0.1600077219128841,-0.8203452131436232,0.233666730132361,2.0
0.9840984098409841,0.12894066895325068,-0.8203140549344482,0.3036943582636726,2.0
0.9850985098509851,0.08332393356306332,-0.820274780206283,0.24703864355471136,2.0
0.9860986098609861,0.24025632503595667,-0.8202273925946069,0.4335808049294433,2.0
0.9870987098709871,0.19039657910468968,-0.8201718958138409,0.5556224243391382,2.0
0.9880988098809881,0.03876358786838327,-0.8201082936572792,0.4494882899913404,2.0
0.9890989098909891,0.13673213995456002,-0.8200365899970193,0.35782027936512173,2.0
0.9900990099009901,0.11756592172608746,-0.8199567887838933,0.26502056081224085,2.0
0.9910991099109911,-0.022967863985500117,-0.8198688940473957,0.2604029155585756,2.0
0.9920992099209921,-0.09257156162428437,-0.8197729098956139,0.29497155476552883,2.0
0.9930993099309932,0.23949213868154012,-0.8196688405151543,0.13541290006506018,2.0
0.9940994099409941,0.08762574310500316,-0.8195566901710707,0.22140385369498383,2.0
0.995099509950995,0.045002003769019513,-0.81943646320679,0.25273692217810434,2.0
0.9960996099609961,0.03857113247369846,-0.8193081640440375,0.33337713623018966,2.0
0.9970997099709971,-0.007738606129414585,-0.8191717971827629,0.3532158150359088,2.0
0.9980998099809981,0.06497866710913935,-0.8190273672010631,0.33298135619492564,2.0
0.9990999099909991,0.12966289060315703,-0.818874878755107,0.20030993902885177,2.0
1.000100010001,-0.0977859764509873,-0.8187143365790566,0.09437868050228829,2.0
1.001100110011001,0.03049977012625634,-0.8185457454849897,-0.07121228932697375,2.0
1.0021002100210021,-0.09085524493363327,-0.8183691103628216,-0.10052217919147988,2.0
1.0031003100310032,-0.19175154707818787,-0.8181844361802243,-0.03958372239308133,2.0
1.004100410041004,-0.08802555846685728,-0.817991727982547,-0.0703978656520327,2.0
1.005100510051005,0.022721372954175652,-0.8177909908927349,0.03554041961116622,2.0
1.0061006100610062,-0.0006475420982326105,-0.817582230111247,0.14726356118487743,2.0
1.0071007100710072,0.03904531739959252,-0.8173654509159741,0.13251589173509193,2.0
1.008100810081008,-0.03887883899740287,-0.8171406586621555,0.17429477350789294,2.0
1.009100910091009,-0.11678107255880898,-0.816907858782294,0.2503358150355534,2.0
1.0101010101010102,-0.4355290012181889,-0.8166670567860729,0.5061465675182035,2.0
1.011101110111011,-0.11517122215121264,-0.8164182582602694,0.6206280193235046,2.0
1.012101210121012,0.0005572798822907343,-0.8161614688686678,0.5679011217653138,2.0
1.0131013101310131,0.03174719017621731,-0.8158966943519743,0.47260008923644503,2.0
1.0141014101410142,-0.10335836424536501,-0.815623940527728,0.44788933040743917,2.0
1.015101510151015,-0.10629733751393877,-0.8153432132902132,0.5978623569887963,2.0
1.016101610161016,0.008969254898738094,-0.8150545186103694,0.7391255138758759,2.0
1.0171017101710171,-0.20332375199110125,-0.8147578625357029,0.7031144669013164,2.0
1.0181018101810182,-0.03793833107951983,-0.8144532511901948,0.8017502584932781,2.0
1.019101910191019,-0.19672831829912218,-0.814140690774211,0.7852359438153127,2.0
1.02010201020102,-0.2013048393803125,-0.8138201875644088,0.8332153717993608,2.0
1.0211021102110212,-0.25081268911717136,-0.8134917479136455,1.0168597491195297,2.0
1.0221022102210222,-0.3201249031426652,-0.8131553782508846,1.1168510462877934,2.0
1.023102310231023,-0.21809641928608509,-0.812811085081101,1.3810191431242522,2.0
1.024102410241024,-0.1941684910739938,-0.8124588749851867,1.3081633559529495,2.0
1.0251025102510252,-0.10994056197902019,-0.8120987546198554,1.2259998871273377,2.0
1.026102610261026,-0.4101187988507527,-0.811730730717546,1.186858726682699,2.0
1.027102710271027,-0.3121134992797506,-0.8113548100863254,1.283931075676756,2.0
1.0281028102810281,-0.19295124867705638,-0.8109709996097906,1.0035476469194093,2.0
1.0291029102910292,-0.21731143993176896,-0.8105793062469712,1.076487804007021,2.0
1.03010301030103,-0.3681697116891614,-0.8101797370322296,1.1646797112254321,2.0
1.031103110311031,-0.5309316219140008,-0.8097722990751607,1.3289159470246195,2.0
1.0321032103210321,-0.2773593287400386,-0.8093569995604925,1.3732982863598895,2.0
1.0331033103310332,-0.38796031072386983,-0.8089338457479842,1.1625837365765304,2.0
1.034103410341034,-0.32355852862520734,-0.8085028449723238,1.18396760230428,2.0
1.035103510351035,-0.41594057341391927,-0.8080640046430266,1.1093860965363114,2.0
1.0361036103610362,-0.3153362775929664,-0.8076173322443309,1.192991204460485,2.0
1.0371037103710372,-0.23754543931354405,-0.8071628353350943,1.1037186285382723,2.0
1.038103810381038,-0.36951996439660195,-0.8067005215486885,1.1405354880384349,2.0
1.039103910391039,-0.4967556860095112,-0.8062303985928951,1.1058734721497607,2.0
1.0401040104010402,-0.32417514798097014,-0.8057524742497978,1.1844399757534556,2.0
1.041104110411041,-0.3166597304245781,-0.8052667563756768,1.1788045153533622,2.0
1.042104210421042,-0.21643345850291523,-0.8047732529009007,1.26202750666884,2.0
1.0431043104310431,-0.24382957342495243,-0.8042719718298187,1.3010081078001294,2.0
1.0441044104410442,-0.5843047882522807,-0.8037629212406509,1.2727519417250068,2.0
1.045104510451045,-0.3150995413906892,-0.8032461092853798,1.4437499531300229,2.0
1.046104610461046,-0.35462054991632763,-0.8027215441896388,1.3328219579107754,2.0
1.0471047104710471,-0.6048781860016803,-0.8021892342526025,1.3172635234278147,2.0
1.0481048104810482,-0.31983959599075595,-0.8016491878468739,1.3713951700708282,2.0
1.049104910491049,-0.5193958940422208,-0.8011014134183734,1.162439465070279,2.0
1.05010501050105,-0.5470814848792765,-0.8005459194862234,1.1995665738265486,2.0
1.0511051105110512,-0.42495350041969837,-0.7999827146426379,1.277411550186186,2.0
1.0521052105210522,-0.5776476408330303,-0.7994118075528054,1.1876039993641896,2.0
1.053105310531053,-0.47530634257897847,-0.7988332069547751,1.0946959194276846,2.0
1.054105410541054,-0.4584957320217361,-0.7982469216593405,0.8875418714975251,2.0
1.0551055105510552,-0.4952961100794773,-0.7976529605499237,0.8630488725711802,2.0
1.056105610561056,-0.5064377114224733,-0.7970513325824585,0.8433855955516008,2.0
1.057105710571057,-0.5475093068593857,-0.796442046785271,0.705736358009653,2.0
1.0581058105810581,-0.6175677476082152,-0.7958251122589634,0.7243925617540828,2.0
1.0591059105910592,-0.38873115608521946,-0.7952005381762932,0.7646938135541903,2.0
1.06010601060106,-0.6443613950719559,-0.7945683337820546,0.8479221203465876,2.0
1.061106110611061,-0.4696926430014199,-0.7939285083929568,0.8505079079106361,2.0
1.0621062106210621,-0.6016677580925385,-0.7932810713975045,0.9431877107596112,2.0
1.0631063106310632,-0.4661613292012956,-0.7926260322558747,0.9213010063862616,2.0
1.064106410641064,-0.647451938389322,-0.7919634004997954,0.9442709692807603,2.0
1.065106510651065,-0.5343120554195455,-0.7912931857324217,0.9227737758483671,2.0
1.0661066106610662,-0.8419502251033153,-0.7906153976282122,0.8788424852266709,2.0
1.0671067106710672,-0.5150941738994699,-0.7899300459328054,0.8386935854892053,2.0
1.068106810681068,-0.6083692350161364,-0.789237140462894,0.7047527971110289,2.0
1.0691069106910691,-0.6097027945220189,-0.7885366911060985,0.5208800448042471,2.0
1.0701070107010702,-0.5406793286245934,-0.7878287078208425,0.6340608085776339,2.0
1.071107110711071,-0.7151346478229829,-0.7871132006362245,0.7174871117150388,2.0
1.072107210721072,-0.42374354589701385,-0.7863901796518902,0.6191517272845488,2.0
1.0731073107310731,-0.5605586746446463,-0.7856596550379052,0.7612266800427039,2.0
1.0741074107410742,-0.5819404167670211,-0.7849216370346251,0.7815403546440964,2.0
1.075107510751075,-0.5669509105260984,-0.7841761359525664,0.780542381185495,2.0
1.076107610761076,-0.5740012649029862,-0.7834231621722757,0.7919997190980193,2.0
1.0771077107710771,-0.6338706545583587,-0.7826627261441994,0.8214175857031116,2.0
1.0781078107810782,-0.7115947423356463,-0.7818948383885524,0.8613340876268029,2.0
1.079107910791079,-0.7765706371175806,-0.7811195094951853,0.712998775155144,2.0
1.08010801080108,-0.6594891763554206,-0.7803367501234512,0.829575154527769,2.0
1.0811081108110812,-0.6802119977848848,-0.7795465710020739,0.9347147693776852,2.0
1.0821082108210822,-0.5919285842175074,-0.7787489829290124,0.872206081470012,2.0
1.083108310831083,-0.8012888204156555,-0.7779439967713269,0.6428041535118602,2.0
1.0841084108410841,-0.7727303329494654,-0.7771316234650428,0.5979197469825278,2.0
1.0851085108510852,-0.7589579870844216,-0.7763118740150154,0.5308340571573066,2.0
1.086108610861086,-0.7734973714670941,-0.7754847594947937,0.6846440446820586,2.0
1.087108710871087,-0.7428185635862818,-0.7746502910464815,0.6749404051243914,2.0
1.0881088108810881,-0.555392477828771,-0.7738084798806013,0.5468128686494695,2.0
1.0891089108910892,-0.8454553459382615,-0.7729593372759553,0.5094811544427718,2.0
1.09010901090109,-0.6941223209096414,-0.7721028745794862,0.48374795856139596,2.0
1.091109110911091,-0.8365622121101829,-0.7712391032061369,0.5792033667396803,2.0
1.0921092109210921,-0.664848808356798,-0.7703680346387117,0.5391036969446295,2.0
1.0931093109310932,-0.7921076332582406,-0.7694896804277338,0.7623057790273244,2.0
1.094109410941094,-0.7737639398840698,-0.768604052191305,0.6450781013701065,2.0
1.095109510951095,-0.7323664224318797,-0.7677111616149627,0.6108012806465097,2.0
1.0961096109610962,-0.9217404851774915,-0.766811020451537,0.5536847582183939,2.0
1.0971097109710972,-0.7532475850565237,-0.7659036405210086,0.6063648093664663,2.0
1.098109810981098,-0.7793032888677395,-0.7649890337103633,0.6472899553718485,2.0
1.0991099109910991,-0.883210093676573,-0.7640672119734481,0.4830725285513423,2.0
1.1001100110011002,-0.8287368177775232,-0.7631381873308264,0.47843020039880396,2.0
1.101110111011101,-0.7795057046721758,-0.7622019718696312,0.4473097647659997,2.0
1.102110211021102,-0.7295063768574148,-0.7612585777434192,0.4640375110653011,2.0
1.1031103110311031,-0.6991919431492515,-0.7603080171720245,0.5797362767027873,2.0
1.1041104110411042,-0.7525557246838543,-0.7593503024414096,0.6205351170244203,2.0
1.105110511051105,-0.8020303838857759,-0.7583854459035185,0.6454566355404684,2.0
1.106110611061106,-0.9488342849684446,-0.7574134599761271,0.7457721310629364,2.0
1.1071107110711071,-0.8942270132833674,-0.7564343571426937,0.8104724456364084,2.0
1.1081108110811082,-0.9534874380779956,-0.75544814995221,0.6755169365657977,2.0
1.109110911091109,-0.9799432497874685,-0.7544548510190499,0.6412733265472838,2.0
1.11011101110111,-0.9087929702913091,-0.7534544730228174,0.5932187898509703,2.0
1.1111111111111112,-1.0553378911572235,-0.7524470287081972,0.45729831549111677,2.0
1.1121112111211122,-0.9406032523579883,-0.7514325308848,0.416307961814715,2.0
1.113111311131113,-0.8202278511202853,-0.7504109924270113,0.33932911035792745,2.0
1.1141114111411141,-0.9826266116850951,-0.7493824262738362,0.44046538984125433,2.0
1.1151115111511152,-0.9308376987014259,-0.7483468454287473,0.56977823608679,2.0
1.116111611161116,-0.8523301894136552,-0.747304262959529,0.5365649024513963,2.0
1.117111711171117,-0.9780039873861843,-0.7462546919981218,0.5312317564367379,2.0
1.1181118111811181,-0.8175636102231468,-0.7451981457404673,0.4496037396222155,2.0
1.1191119111911192,-0.9717218141107024,-0.744134637446352,0.38198490638623067,2.0
1.12011201120112,-0.9402704014141929,-0.7430641804392499,0.22028126762260136,2.0
1.121112111211121,-1.1835119627031472,-0.7419867881061645,0.2536052842935999,2.0
1.1221122112211221,-0.8756776120739163,-0.7409024738974719,0.23240936527427547,2.0
1.1231123112311232,-0.9741320237976664,-0.7398112513267613,0.06853993594533046,2.0
1.124112411241124,-0.9013097925028325,-0.7387131339706765,0.2121458961496491,2.0
1.125112511251125,-0.9699658488463552,-0.7376081354687551,0.14464284279761,2.0
1.1261126112611262,-0.9293388602768133,-0.7364962695232692,-0.0771269189333101,2.0
1.1271127112711272,-0.9391658352442006,-0.735377549899064,-0.04742552488520065,2.0
1.128112811281128,-1.037309692902597,-0.734251990423397,0.006500725964722404,2.0
1.1291129112911291,-1.0613875807797184,-0.7331196049857742,-0.09005838031003276,2.0
1.1301130113011302,-0.9173963429493048,-0.7319804075377905,0.15092152169816572,2.0
1.131113111311131,-1.0908437733254674,-0.730834412092964,0.2792974993135067,2.0
1.132113211321132,-0.706523987112064,-0.7296816327265732,0.32426066272482984,2.0
1.1331133113311331,-0.8898761213272087,-0.728522083575494,0.2009380537465579,2.0
1.1341134113411342,-1.0329656081808547,-0.7273557788380327,-0.0011574284100419163,2.0
1.135113511351135,-0.878215606446594,-0.7261827327737634,0.0988722764216705,2.0
1.136113611361136,-0.9208324301926478,-0.7250029597033594,0.001838123575581363,2.0
1.1371137113711371,-0.9076541358127281,-0.7238164740084286,0.012757736128844739,2.0
1.1381138113811382,-1.0650603381796326,-0.7226232901313469,-0.21006821216865004,2.0
1.139113911391139,-1.1399406030646841,-0.7214234225750896,-0.08194045018240831,2.0
1.14011401140114,-1.0611445493954232,-0.7202168859030633,-0.2522213515818145,2.0
1.1411141114111412,-0.9915266676176651,-0.7190036947389394,-0.18624653547054906,2.0
1.1421142114211422,-0.9320216774416544,-0.717783863766483,-0.19852188945373908,2.0
1.143114311431143,-0.8679716380779265,-0.716557407729384,-0.4612768545147396,2.0
1.1441144114411441,-0.8799161535616815,-0.7153243414310875,-0.4825986132724478,2.0
1.1451145114511452,-1.0890898396339987,-0.7140846797346223,-0.24167017950950928,2.0
1.146114611461146,-0.920991573844391,-0.7128384375624313,-0.2614397612250063,2.0
1.147114711471147,-0.7940835812399053,-0.7115856298961973,-0.3171052824140529,2.0
1.1481148114811481,-1.0367117688954552,-0.710326271776674,-0.42534625753755384,2.0
1.1491149114911492,-1.0157517605890978,-0.7090603783035112,-0.2522823514416128,2.0
1.15011501150115,-1.0458299945822822,-0.7077879646350818,-0.27928924270108546,2.0
1.151115111511151,-1.0184640285428403,-0.7065090459883085,-0.30668158932292444,2.0
1.1521152115211521,-1.1636987735082651,-0.7052236376384902,-0.4120874808516655,2.0
1.1531153115311532,-0.9828744540217306,-0.7039317549191257,-0.44047007812583927,2.0
1.154115411541154,-0.9656685831955796,-0.702633413221741,-0.5799810932524571,2.0
1.155115511551155,-0.8593630500518332,-0.7013286279957096,-0.6603113975478192,2.0
1.1561156115611562,-0.9421480906278329,-0.7000174147480801,-0.6608436003672389,2.0
1.1571157115711572,-0.9483552139860238,-0.6986997890433986,-0.4805874599397732,2.0
1.158115811581158,-0.9196258860330733,-0.6973757665035295,-0.5643828372901011,2.0
1.1591159115911591,-0.9221279085040479,-0.6960453628074798,-0.7292030114223726,2.0
1.1601160116011602,-0.8030588545178817,-0.6947085936912197,-0.8034246403440464,2.0
1.161116111611161,-1.2104760788579314,-0.6933654749475057,-0.7646259878317764,2.0
1.162116211621162,-1.04908870011305,-0.6920160224256983,-0.8299630475874571,2.0
1.1631163116311631,-0.9598046881684211,-0.6906602520315852,-0.7308294040361143,2.0
1.1641164116411642,-1.0008653166525827,-0.6892981797272,-0.8134394154343504,2.0
1.165116511651165,-1.1220077504502546,-0.6879298215306411,-1.0295521196895685,2.0
1.166116611661166,-1.0213451054807563,-0.6865551935158908,-0.9632285764354993,2.0
1.1671167116711672,-1.2001942024470376,-0.6851743118126343,-0.8285766080944275,2.0
1.1681168116811682,-1.063027481654537,-0.6837871926060769,-0.6926979486973455,2.0
1.169116911691169,-0.9431237662044414,-0.682393852136762,-0.6428882574215387,2.0
1.17011701170117,-1.010345718743233,-0.6809943067003865,-0.5340537078139589,2.0
1.1711171117111712,-1.1063944095190708,-0.6795885726476195,-0.5074931318929089,2.0
1.1721172117211722,-0.9743825171748955,-0.6781766663839168,-0.5638143048040684,2.0
1.173117311731173,-0.8868459456363554,-0.6767586043693372,-0.6839135678789131,2.0
1.1741174117411741,-1.194055388199948,-0.6753344031183559,-0.7423830617924682,2.0
1.1751175117511752,-1.0540004304977015,-0.6739040791996818,-0.7500588404109616,2.0
1.176117611761176,-1.0395913180747391,-0.6724676492360694,-0.7814759283608,2.0
1.177117711771177,-0.8450017325781276,-0.6710251299041329,-0.8859547101977059,2.0
1.1781178117811781,-1.0366792038402508,-0.6695765379341606,-0.9589973662226804,2.0
1.1791179117911792,-1.1547962297964436,-0.668121890109926,-0.8875982395086144,2.0
1.18011801180118,-1.050690751285145,-0.6666612032685015,-0.9540640432062679,2.0
1.181118111811181,-0.9814402470945743,-0.6651944943000686,-0.9466977739562812,2.0
1.1821182118211822,-0.9407784652084163,-0.663721780147731,-0.8095888654046007,2.0
1.1831183118311832,-0.9265185495156649,-0.6622430778073247,-0.955449026724625,2.0
1.184118411841184,-0.8881473971056008,-0.6607584043272287,-0.9714607672931281,2.0
1.185118511851185,-0.8455223670169094,-0.6592677768081739,-0.8993925395030641,2.0
1.1861186118611862,-0.8789789630842019,-0.6577712124030551,-0.9786469205476236,2.0
1.1871187118711872,-1.0437992433083216,-0.6562687283167379,-1.1039421125940656,2.0
1.188118811881188,-1.1619586165218554,-0.6547603418058691,-1.242807135761159,2.0
1.1891189118911891,-1.073955728320225,-0.653246070178683,-1.3760584834833989,2.0
1.1901190119011902,-0.9229792964257933,-0.6517259307948109,-1.3553583179580313,2.0
1.191119111911191,-0.9063072063577338,-0.650199941065089,-1.4830525710513043,2.0
1.192119211921192,-0.9574684107808925,-0.6486681184513631,-1.4291863667829032,2.0
1.1931193119311931,-0.8846149254106095,-0.6471304804662967,-1.3206755992821373,2.0
1.1941194119411942,-1.0458537176746427,-0.6455870446731777,-1.2088682133644948,2.0
1.195119511951195,-0.7303714432046085,-0.6440378286857231,-1.2248648965490379,2.0
1.196119611961196,-0.9719418315729296,-0.6424828501678835,-1.365065332595373,2.0
1.1971197119711972,-1.180732113824294,-0.6409221268336502,-1.328636521650206,2.0
1.1981198119811982,-1.2080313559351248,-0.6393556764468576,-1.2205473387803618,2.0
1.199119911991199,-0.9232743921359798,-0.6377835168209892,-1.4211765781991212,2.0
1.2001200120012,-1.0855349762418591,-0.6362056658189786,-1.3685866171884842,2.0
1.2011201120112012,-1.006415626004427,-0.6346221413530146,-1.5380119918511703,2.0
1.2021202120212022,-1.0963417206570356,-0.6330329613843447,-1.6296740357487416,2.0
1.203120312031203,-0.7449233334739446,-0.6314381439230751,-1.7843722605745154,2.0
1.2041204120412041,-0.8989172666617119,-0.629837707027974,-1.764411126047482,2.0
1.2051205120512052,-0.9652039654620524,-0.628231668806274,-1.6267765837972399,2.0
1.206120612061206,-0.8301455242669866,-0.6266200474134719,-1.5349235616290562,2.0
1.207120712071207,-0.9020463746404297,-0.6250028610531295,-1.4776200450618353,2.0
1.2081208120812081,-1.131517097886328,-0.6233801279766754,-1.561805691260843,2.0
1.2091209120912092,-0.7847442170902117,-0.6217518664832035,-1.7375568684821374,2.0
1.21012101210121,-0.9069100536196191,-0.6201180949192738,-1.7579333659405014,2.0
1.211121112111211,-0.9056694924084504,-0.61847883167871,-1.7218445151041424,2.0
1.2121212121212122,-0.786579557253405,-0.6168340952023997,-1.7331345480623517,2.0
1.2131213121312132,-0.8628737900874428,-0.6151839039780932,-1.7789978851750754,2.0
1.214121412141214,-1.0178793979083551,-0.6135282765401999,-1.839490800268546,2.0
1.215121512151215,-0.892922890537685,-0.6118672314695868,-1.7774799303213762,2.0
1.2161216121612162,-0.9827722600887695,-0.6102007873933765,-1.9339283618303964,2.0
1.2171217121712172,-0.8995277731119804,-0.6085289629847428,-1.9826479128209584,2.0
1.218121812181218,-0.9303335509129028,-0.6068517769627091,-2.1529264682018687,2.0
1.2191219121912191,-1.048811547194603,-0.6051692480919414,-1.9843961997660848,2.0
1.2201220122012202,-0.8341961779811402,-0.6034813951825475,-2.0941151980359507,2.0
1.221122112211221,-0.8587869370071652,-0.6017882370898712,-2.1933080508362113,2.0
1.222122212221222,-0.7938977612073,-0.6000897927142859,-2.3800211430270153,2.0
1.2231223122312231,-0.90144369391599,-0.598386081000991,-2.3500849382836533,2.0
1.2241224122412242,-0.7030967272043708,-0.5966771209398068,-2.2972526041644525,2.0
1.225122512251225,-0.8065871788442837,-0.5949629315649664,-2.232368004111684,2.0
1.226122612261226,-0.7691816360707753,-0.5932435319549099,-2.0504733384238825,2.0
1.2271227122712272,-0.8313334623212449,-0.5915189412320795,-1.9399077690563293,2.0
1.2281228122812282,-0.7680216862114186,-0.5897891785627098,-2.133803190449941,2.0
1.229122912291229,-0.8497318784205158,-0.5880542631566228,-2.110282073150891,2.0
1.2301230123012301,-0.8458236998029924,-0.5863142142670175,-1.984729673634911,2.0
1.2311231123112312,-0.7919031078232569,-0.5845690511902637,-2.021991016620914,2.0
1.2321232123212322,-0.896302277396918,-0.5828187932656936,-1.9111489900314007,2.0
1.233123312331233,-0.7673961384479967,-0.5810634598753918,-1.9038652574817911,2.0
1.2341234123412341,-0.8473314773555607,-0.5793030704439858,-1.9591623515418957,2.0
1.2351235123512352,-0.7898132828584963,-0.5775376444384389,-1.9938481254053522,2.0
1.236123612361236,-0.8293997294191686,-0.5757672013678383,-2.0452737141899653,2.0
1.237123712371237,-0.8000745707333972,-0.5739917607831843,-1.930673434974716,2.0
1.2381238123812381,-0.7335210711165022,-0.5722113422771826,-1.8730019024694284,2.0
1.2391239123912392,-0.8543489055374713,-0.5704259654840307,-1.782515561729117,2.0
1.24012401240124,-0.7635742163109426,-0.5686356500792088,-1.6581030725977612,2.0
1.241124112411241,-0.8282075969928717,-0.5668404157792659,-1.7780796023106857,2.0
1.2421242124212422,-0.7507165523362186,-0.5650402823416104,-1.6316852599832314,2.0
1.2431243124312432,-0.6739485650495664,-0.5632352695642974,-1.7686998113284114,2.0
1.244124412441244,-0.5557832751921407,-0.5614253972858151,-1.833066175875259,2.0
1.2451245124512451,-0.8662849166721559,-0.5596106853848724,-1.8313355551619772,2.0
1.2461246124612462,-0.6906220996715936,-0.5577911537801875,-2.0080363917935604,2.0
1.2471247124712472,-0.7651330349428555,-0.5559668224302722,-1.9904166480984948,2.0
1.248124812481248,-0.7339340434055691,-0.5541377113332201,-1.934690963809715,2.0
1.2491249124912491,-0.8183596457964151,-0.5523038405264906,-1.782688649249111,2.0
1.2501250125012502,-0.6346905050793341,-0.5504652300866962,-1.7077240281125556,2.0
1.251125112511251,-0.6913489076675977,-0.5486219001293885,-1.7192214360475153,2.0
1.252125212521252,-0.613153384881447,-0.5467738708088403,-1.844139949458024,2.0
1.2531253125312531,-0.8688375648530224,-0.5449211623178333,-1.7596407068384048,2.0
1.2541254125412542,-0.7068927339449332,-0.5430637948874418,-1.7242285331510754,2.0
1.255125512551255,-0.6839617911405198,-0.5412017887868168,-1.6714185786431128,2.0
1.256125612561256,-0.5623397069064715,-0.5393351643229684,-1.6668738658753808,2.0
1.2571257125712572,-0.7978492434905207,-0.5374639418405522,-1.645669652448376,2.0
1.2581258125812582,-0.7542785755403706,-0.535588141721651,-1.6704818530437173,2.0
1.259125912591259,-0.4310767602790312,-0.5337077843855588,-1.6272617812644616,2.0
1.2601260126012601,-0.6803086339222132,-0.5318228902885602,-1.6316893648109052,2.0
1.2611261126112612,-0.6648803554938808,-0.5299334799237186,-1.6724517282695772,2.0
1.2621262126212622,-0.6300439760643566,-0.5280395738206543,-1.5409583877276842,2.0
1.263126312631263,-0.5330415708444308,-0.5261411925453274,-1.6227648079463162,2.0
1.2641264126412641,-0.38481990655739334,-0.5242383566998193,-1.65830292804764,2.0
1.2651265126512652,-0.5932927163572728,-0.5223310869221146,-1.5753495518486678,2.0
1.266126612661266,-0.6942840686896731,-0.5204194038858828,-1.523317507263309,2.0
1.267126712671267,-0.6691238687766318,-0.5185033283002571,-1.5335784424671683,2.0
1.2681268126812681,-0.5696842845992967,-0.5165828809096169,-1.4849374114330043,2.0
1.2691269126912692,-0.5932880232013287,-0.5146580824933676,-1.6951409078960102,2.0
1.27012701270127,-0.5211504587620336,-0.5127289538657208,-1.6216894986079042,2.0
1.271127112711271,-0.6291385528715427,-0.5107955158754728,-1.5326724218388084,2.0
1.2721272127212722,-0.7472163347562357,-0.5088577894057864,-1.639571621901,2.0
1.2731273127312732,-0.545530616604911,-0.5069157953739685,-1.7338709406980575,2.0
1.274127412741274,-0.4174558336329751,-0.5049695547312506,-1.5387494481524784,2.0
1.2751275127512751,-0.445859502307299,-0.5030190884625648,-1.4595766552763945,2.0
1.2761276127612762,-0.667096226621666,-0.5010644175863262,-1.6073750807238714,2.0
1.2771277127712772,-0.5049693569418662,-0.4991055631542087,-1.4964180304708734,2.0
1.278127812781278,-0.618907550748388,-0.4971425462509241,-1.5042892687201639,2.0
1.2791279127912791,-0.5167258811594093,-0.49517538799399874,-1.6746731204692882,2.0
1.2801280128012802,-0.48777557004652,-0.49320410953355187,-1.7264062578934252,2.0
1.281128112811281,-0.5768785139167111,-0.4912287320520747,-1.7839400496024755,2.0
1.282128212821282,-0.4588781156476961,-0.4892492767642036,-1.8562906960387981,2.0
1.2831283128312831,-0.45112605701761715,-0.4872657649165013,-1.7453947054554508,2.0
1.2841284128412842,-0.3674842778372651,-0.48527821778723124,-1.7068256019886718,2.0
1.285128512851285,-0.4449364060076133,-0.4832866566861337,-1.6702890105845918,2.0
1.286128612861286,-0.35865693075771765,-0.48129110295420263,-1.664807697745653,2.0
1.2871287128712872,-0.40653437438539586,-0.47929157796346267,-1.8365581323716555,2.0
1.2881288128812882,-0.5035956291834109,-0.47728810311674374,-1.7697188781240518,2.0
1.289128912891289,-0.13369427810369855,-0.4752806998474576,-1.8082337798170123,2.0
1.2901290129012901,-0.3639896741289006,-0.4732693896193711,-1.7141425936938948,2.0
1.2911291129112912,-0.4454072323748006,-0.4712541939263834,-1.7210141758440987,2.0
1.2921292129212922,-0.2564378394022743,-0.4692351342923009,-1.8048523806650612,2.0
1.293129312931293,-0.4136329536611446,-0.46721223227061187,-1.7296568726130719,2.0
1.2941294129412941,-0.510923155971092,-0.46518550944425857,-1.8364588313501127,2.0
1.2951295129512952,-0.4208136285117487,-0.4631549874254159,-1.868087147324844,2.0
1.296129612961296,-0.3534296292817633,-0.46112068785526167,-1.6454584805106756,2.0
1.297129712971297,-0.2388149750115688,-0.45908263240375186,-1.5841164937782573,2.0
1.2981298129812981,-0.5081542923504054,-0.45704084276939605,-1.4669127426514985,2.0
1.2991299129912992,-0.37614575601345224,-0.4549953406790285,-1.460966020453748,2.0
1.3001300130013,-0.2857154312147528,-0.45294614788758375,-1.4372077580387392,2.0
1.301130113011301,-0.19208021696604782,-0.4508932861778667,-1.4774789614472532,2.0
1.3021302130213022,-0.41831585731066834,-0.4488367773603282,-1.371124273237871,2.0
1.3031303130313032,-0.30916767130286005,-0.44677664327283784,-1.454397839989223,2.0
1.304130413041304,-0.36435917063770423,-0.4447129057804561,-1.5597812637797623,2.0
1.3051305130513051,-0.17229224820207906,-0.44264558677520477,-1.477018220600365,2.0
1.3061306130613062,-0.21886635069815047,-0.44057470817584343,-1.491038126725015,2.0
1.3071307130713072,-0.11801367117451594,-0.4385002919276369,-1.5649356557728842,2.0
1.308130813081308,-0.24277524392139502,-0.4364223600021316,-1.472437167236033,2.0
1.3091309130913091,-0.21844589857311253,-0.43434093439692306,-1.6109714529390537,2.0
1.3101310131013102,-0.20003659535621823,-0.4322560371354311,-1.6523994948540057,2.0
1.311131113111311,-0.22350614151062403,-0.43016769026667,-1.7533848354857768,2.0
1.312131213121312,-0.11123078579323548,-0.42807591586501814,-1.9200706439943738,2.0
1.3131313131313131,-0.18416903947146845,-0.4259807360299907,-2.023708517051813,2.0
1.3141314131413142,0.025251666388323324,-0.42388217288601143,-2.0436069503945484,2.0
1.315131513151315,-0.08035894937400197,-0.42178024858218255,-2.04557556714515,2.0
1.316131613161316,-0.08629405975918263,-0.4196749852920535,-2.0860693156232646,2.0
1.3171317131713172,-0.16665283256777771,-0.4175664052133952,-2.0008389773558406,2.0
1.3181318131813182,0.040891804269981596,-0.4154545305679665,-2.05466462397797,2.0
1.319131913191319,-0.31513369259718993,-0.41333938360128847,-2.015446275699457,2.0
1.3201320132013201,-0.2971008722536993,-0.4112209865824097,-2.0628168780189102,2.0
1.3211321132113212,-0.3572111810388474,-0.40909936180368084,-2.2166056792102737,2.0
1.3221322132213222,0.02218760979357705,-0.40697453158052194,-2.1573456364068706,2.0
1.323132313231323,-0.07734892396801978,-0.4048465182511916,-2.2705604092493012,2.0
1.3241324132413241,-0.11672201913602381,-0.4027153441765569,-2.211316506324795,2.0
1.3251325132513252,-0.19537216872485957,-0.4005810317398648,-2.1397626539262378,2.0
1.326132613261326,-0.03705520004946145,-0.3984436033465095,-2.2309633978643015,2.0
1.327132713271327,0.007598228931167884,-0.39630308142380005,-2.1004048779038462,2.0
1.3281328132813282,-0.102496513310681,-0.39415948842073356,-2.1717367315796365,2.0
1.3291329132913292,-0.05701942030735915,-0.39201284680775916,-2.2008549648534426,2.0
1.33013301330133,-0.12378092984943787,-0.38986317907655155,-2.150490948127263,2.0
1.331133113311331,-0.040365865612760066,-0.38771050773977495,-2.2805891494183865,2.0
1.3321332133213322,-0.119873123911417,-0.38555485533085576,-2.267466094146768,2.0
1.3331333133313332,-0.010984961064398079,-0.3833962444037489,-2.3062692592441496,2.0
1.334133413341334,-0.04567458249363109,-0.38123469753270556,-2.3512308281214334,2.0
1.3351335133513351,-0.08141089584851428,-0.37907023731204165,-2.3184768746727116,2.0
1.3361336133613362,-0.10339415877605332,-0.37690288635590796,-2.5106392666064057,2.0
1.3371337133713372,0.024079895079510652,-0.3747326672980558,-2.532815654961384,2.0
1.338133813381338,0.09779574199490455,-0.3725596027916062,-2.6759739167630303,2.0
1.3391339133913391,0.2425389286055025,-0.3703837155088159,-2.696431176020548,2.0
1.3401340134013402,0.025918255978829345,-0.36820502814084627,-2.587047409037133,2.0
1.341134113411341,0.061474266499712535,-0.36602356339753256,-2.540830589758003,2.0
1.342134213421342,0.10804066208158976,-0.3638393440071473,-2.5117762993682584,2.0
1.3431343134313432,0.32633516983120975,-0.3616523927161719,-2.3736567989352224,2.0
1.3441344134413442,0.0016031025316032982,-0.35946273228906206,-2.403966978445549,2.0
1.345134513451345,0.04266437998168153,-0.3572703855080139,-2.3882058224293705,2.0
1.346134613461346,-0.051502001804083514,-0.3550753751727322,-2.3153465115497482,2.0
1.3471347134713472,-0.08857007769313485,-0.3528777241001987,-2.402930682100941,2.0
1.3481348134813482,0.07999787569414542,-0.3506774551244375,-2.4585519798070856,2.0
1.349134913491349,0.3964873910328789,-0.34847459109628265,-2.5843023245708565,2.0
1.3501350135013501,0.05091309827642854,-0.3462691548831438,-2.8026505532023727,2.0
1.3511351135113512,0.30397390379765554,-0.3440611693687737,-2.774262551358694,2.0
1.3521352135213522,0.14902921297723085,-0.3418506574530361,-2.776971944408253,2.0
1.353135313531353,0.27659693038453914,-0.3396376420516718,-2.828608516837612,2.0
1.3541354135413541,0.40706799838857155,-0.33742214609606264,-2.7246417995788934,2.0
1.3551355135513552,0.28201246205557234,-0.33520419253300243,-2.7185029932221685,2.0
1.356135613561356,0.12933831839031387,-0.3329838043244595,-2.7003146024723437,2.0
1.357135713571357,0.2792346986786473,-0.3307610044473445,-2.650851818448593,2.0
1.3581358135813582,0.402240636197701,-0.32853581589327824,-2.6757294209274884,2.0
1.3591359135913592,0.23359528062201917,-0.32630826166835586,-2.74286474594132,2.0
1.36013601360136,0.3524255134369952,-0.3240783647929147,-2.7433099591507615,2.0
1.361136113611361,0.30972109593138786,-0.32184614830129804,-2.775889754107316,2.0
1.3621362136213622,0.4645351640625355,-0.319611635241623,-2.8711262684257512,2.0
1.3631363136313632,0.2740022644965251,-0.3173748486755477,-2.7388026308972777,2.0
1.364136413641364,0.28289301659991506,-0.31513581167803595,-2.71603510978923,2.0
1.3651365136513651,0.290045989821186,-0.31289454733712163,-2.7382170363111107,2.0
1.3661366136613662,0.30521479880931096,-0.3106510787536787,-2.616150292880155,2.0
1.3671367136713672,0.23552614484348747,-0.3084054290411825,-2.591766926471144,2.0
1.368136813681368,0.3074818748446588,-0.30615762132548047,-2.3680374931306774,2.0
1.3691369136913691,0.33487620924845024,-0.3039076787445531,-2.510516902027262,2.0
1.3701370137013702,0.4719567704557922,-0.3016556244482841,-2.5833750518910072,2.0
1.371137113711371,0.26747083627728213,-0.2994014815982251,-2.646371098357861,2.0
1.372137213721372,0.19461217021127047,-0.29714527336735685,-2.6062553711740244,2.0
1.3731373137313732,0.33080666270213077,-0.2948870229398628,-2.5265557612350937,2.0
1.3741374137413742,0.48410012969924315,-0.2926267535108898,-2.4239117404913184,2.0
1.375137513751375,0.3298664398781222,-0.2903644882863156,-2.3651586234657285,2.0
1.376137613761376,0.20936527614054087,-0.28810025048251275,-2.1941579098961164,2.0
1.3771377137713772,0.41104912367177066,-0.2858340633261157,-2.179540807351459,2.0
1.3781378137813782,0.4790321105677027,-0.2835659500537879,-2.3097840354344377,2.0
1.379137913791379,0.4497465347777445,-0.2812959339119857,-2.341047895107692,2.0
1.3801380138013801,0.2640933393176668,-0.2790240381567229,-2.3430032605720377,2.0
1.3811381138113812,0.38714855932529274,-0.2767502860533405,-2.346671656880783,2.0
1.3821382138213822,0.31589594346715366,-0.2744747008762674,-2.2411490569988723,2.0
1.383138313831383,0.46947511905974576,-0.27219730590879115,-2.2263111110914826,2.0
1.3841384138413841,0.4531116134697695,-0.26991812444281876,-2.3816699183517334,2.0
1.3851385138513852,0.608479529418643,-0.2676371797786467,-2.261448662670048,2.0
1.386138613861386,0.5381063976653937,-0.265354495224725,-2.0579736082152675,2.0
1.387138713871387,0.509527089807831,-0.2630700940974213,-2.211003865302888,2.0
1.3881388138813882,0.6401510427970293,-0.26078399972078853,-2.2137940252555466,2.0
1.3891389138913892,0.2581940523124856,-0.2584962354263314,-2.3731122648359952,2.0
1.39013901390139,0.4480894444160945,-0.256206824552771,-2.3805806096047784,2.0
1.3911391139113911,0.5284869867545238,-0.2539157904458093,-2.5376054792061793,2.0
1.3921392139213922,0.5853086167231747,-0.25162315645789884,-2.52999179917982,2.0
1.3931393139313932,0.6246508949510313,-0.24932894594800364,-2.436318189714228,2.0
1.394139413941394,0.6532281370729827,-0.24703318228137047,-2.3624924514262697,2.0
1.3951395139513951,0.6723665213283252,-0.24473588882928946,-2.2890793629492614,2.0
1.3961396139613962,0.6257363105119879,-0.2424370889688647,-2.2235730353360155,2.0
1.3971397139713972,0.6435866983034211,-0.24013680608277815,-2.133780008453777,2.0
1.398139813981398,0.7431319678671903,-0.2378350635590548,-2.1540913699675728,2.0
1.3991399139913991,0.738680406124936,-0.23553188479082943,-2.1793807623088566,2.0
1.4001400140014002,0.46837826336205074,-0.2332272931761146,-2.116265379343513,2.0
1.401140114011401,0.8202855535913892,-0.2309213121175653,-2.1847732354251996,2.0
1.402140214021402,0.6105602867144294,-0.22861396502224338,-2.3136908509115197,2.0
1.4031403140314032,0.6381774080137498,-0.226305275301388,-2.4668605454426213,2.0
1.4041404140414042,0.5078805402141205,-0.22399526637017736,-2.4966676614159256,2.0
1.405140514051405,0.6358665230179315,-0.2216839616474998,-2.4351115031721546,2.0
1.4061406140614061,0.6974595120613615,-0.21937138455571514,-2.494057609108348,2.0
1.4071407140714072,0.5502389206514504,-0.217057558520426,-2.612012405298545,2.0
1.4081408140814082,0.6023811290383432,-0.21474250697024205,-2.484325365319986,2.0
1.409140914091409,0.7132141352084023,-0.2124262533365456,-2.4549202466849818,2.0
1.4101410141014101,0.7153949278948173,-0.21010882105325954,-2.3061580506941417,2.0
1.4111411141114112,0.43115413062611596,-0.20779023355661527,-2.3697878249082724,2.0
1.4121412141214122,0.621445029182527,-0.2054705142849177,-2.476398943934832,2.0
1.413141314131413,0.638085208161034,-0.20314968667831354,-2.357371042921027,2.0
1.4141414141414141,0.6277230596733802,-0.2008277741785561,-2.4414294272413213,2.0
1.4151415141514152,0.7275216434810478,-0.19850480022877395,-2.2724148374163895,2.0
1.416141614161416,0.7614505098010116,-0.19618078827323956,-2.2350343378297772,2.0
1.417141714171417,0.6618580695258794,-0.19385576175713246,-2.2304323817336864,2.0
1.4181418141814182,0.7300460882451295,-0.1915297441263109,-2.0765926614964205,2.0
1.4191419141914192,0.7696572383366017,-0.1892027588270772,-2.063724124117909,2.0
1.42014201420142,0.7493904214652146,-0.18687482930594396,-2.0419693514723707,2.0
1.4211421142114211,0.728245911903988,-0.18454597900940306,-2.0516108303169527,2.0
1.4221422142214222,0.7850702331637778,-0.18221623138369444,-2.1501866833540624,2.0
1.4231423142314232,0.7047189444052803,-0.17988560987457208,-2.002684037781352,2.0
1.424142414241424,0.7741014677275977,-0.17755413792707306,-1.9420529328418077,2.0
1.4251425142514251,0.7555216750108604,-0.17522183898528357,-2.055366654232345,2.0
1.4261426142614262,0.753335117601661,-0.17288873649210826,-1.9418106316015002,2.0
1.4271427142714272,0.684086441428005,-0.17055485388903976,-1.8356853487544336,2.0
1.428142814281428,0.7161286947113913,-0.16822021461592565,-1.9101339238182,2.0
1.4291429142914291,0.7226996794349573,-0.1658848421107348,-2.0250855301351556,2.0
1.4301430143014302,0.903058352189891,-0.1635487598093304,-1.8458899037089886,2.0
1.431143114311431,0.6842475288973585,-0.16121199114523424,-1.7210326271823488,2.0
1.432143214321432,0.766474066197703,-0.15887455954939705,-1.5873876525061106,2.0
1.4331433143314332,0.8381924713781967,-0.15653648844996898,-1.5575845948742004,2.0
1.4341434143414342,0.805193040536151,-0.15419780127206623,-1.6450149530558478,2.0
1.435143514351435,0.7965268982941672,-0.15185852143754175,-1.3674806192727333,2.0
1.4361436143614361,0.9900798896482015,-0.1495186723647524,-1.3854794150966303,2.0
1.4371437143714372,0.9134264429291223,-0.14717827746832943,-1.3470269433845503,2.0
1.4381438143814382,0.8070764343744926,-0.1448373601589495,-1.2700148785010672,2.0
1.439143914391439,0.8193659273107047,-0.14249594384310274,-1.257738313646094,2.0
1.4401440144014401,0.9175245592181581,-0.1401540519228607,-1.2894788393370717,2.0
1.4411441144114412,0.8784773452932677,-0.13781170779565063,-1.3126129954353631,2.0
1.4421442144214422,1.0253925273625013,-0.1354689348540204,-1.197237094502977,2.0
1.443144314431443,0.7873271483318375,-0.1331257564854136,-1.1552814207198272,2.0
1.4441444144414441,0.8013988216981331,-0.13078219607193503,-1.1862714691931535,2.0
1.4451445144514452,0.6964888195759152,-0.1284382769901253,-1.2422884622723003,2.0
1.446144614461446,0.9132634887708361,-0.12609402261072966,-1.173848329478348,2.0
1.447144714471447,0.8597597813860999,-0.1237494562984673,-1.0231139173709345,2.0
1.4481448144814482,0.777866268342913,-0.1214046014118036,-0.9936035655430502,2.0
1.4491449144914492,0.9604932030363265,-0.11905948130272248,-0.9000836430474424,2.0
1.45014501450145,0.8644268443665679,-0.11671411931649629,-0.9429536893076735,2.0
1.4511451145114511,0.8134754861840685,-0.11436853879145499,-0.7393345994697036,2.0
1.4521452145214522,0.7635272212182689,-0.11202276305876256,-0.6740324528452026,2.0
1.4531453145314532,0.7233925962362074,-0.10967681544218318,-0.6630934535412792,2.0
1.454145414541454,0.8550341909520498,-0.10733071925785836,-0.7360974575420735,2.0
1.4551455145514551,0.8298574925731432,-0.10498449781407376,-0.560697384138592,2.0
1.4561456145614562,0.8875018320467565,-0.10263817441103588,-0.4634100519884644,2.0
1.4571457145714573,1.0535719036730176,-0.10029177234064242,-0.6036765419851345,2.0
1.458145814581458,0.7637184263714026,-0.09794531488625353,-0.6301020154453788,2.0
1.4591459145914591,0.9328086073016597,-0.09559882532246577,-0.5730795641548503,2.0
1.4601460146014602,0.8913957095760733,-0.09325232691488629,-0.7381185571610738,2.0
